imageLocation,trials_2.thisRepN,trials_2.thisTrialN,trials_2.thisN,trials_2.thisIndex,trials.thisRepN,trials.thisTrialN,trials.thisN,trials.thisIndex,text.started,text.stopped,key_resp_2.keys,key_resp_2.rt,key_resp_2.started,key_resp_2.stopped,polygon.started,polygon.stopped,mic.clip,mic.started,mic.stopped,key_resp.keys,key_resp.rt,key_resp.started,key_resp.stopped,image.started,image.stopped,text_2.started,text_2.stopped,new_run.keys,new_run.rt,new_run.started,new_run.stopped,text_3.started,text_3.stopped,participant,session,date,expName,psychopyVersion,frameRate,
,,,,,,,,,52.37281126099697,None,space,1.7874527840031078,52.37281126099697,None,,,,,,,,,,,,,,,,,,,,sub-008,001,2023_Apr_11_1119,cans_4-2-23,2021.2.3,120.04411668156534,
train2017_coco_4866/000000029020.jpg,0,0,0,0,0,0,0,0,,,,,,,None,None,/Users/graziano-isaac/Desktop/CANS/v2_Behavioral/data/sub-008_cans_4-2-23_2023_Apr_11_1119_mic_recorded/recording_000000029020_trials_0.default,0.0024630758998682722,None,space,8.531049728000653,55.773150870998506,None,55.773150870998506,None,,,,,,,,,sub-008,001,2023_Apr_11_1119,cans_4-2-23,2021.2.3,120.04411668156534,
train2017_coco_4866/000000029104.jpg,0,0,0,0,0,1,1,1,,,,,,,65.25671013299143,None,/Users/graziano-isaac/Desktop/CANS/v2_Behavioral/data/sub-008_cans_4-2-23_2023_Apr_11_1119_mic_recorded/recording_000000029104_trials_1.default,0.002843149282853119,None,space,7.620599834001041,66.11559526099882,None,66.11559526099882,None,,,,,,,,,sub-008,001,2023_Apr_11_1119,cans_4-2-23,2021.2.3,120.04411668156534,
train2017_coco_4866/000000029942.jpg,0,0,0,0,0,2,2,2,,,,,,,74.67375210700266,None,/Users/graziano-isaac/Desktop/CANS/v2_Behavioral/data/sub-008_cans_4-2-23_2023_Apr_11_1119_mic_recorded/recording_000000029942_trials_2.default,0.0027093752869404852,None,space,6.259684966993518,75.54050862099393,None,75.54050862099393,None,,,,,,,,,sub-008,001,2023_Apr_11_1119,cans_4-2-23,2021.2.3,120.04411668156534,
train2017_coco_4866/000000030340.jpg,0,0,0,0,0,3,3,3,,,,,,,82.74911126100051,None,/Users/graziano-isaac/Desktop/CANS/v2_Behavioral/data/sub-008_cans_4-2-23_2023_Apr_11_1119_mic_recorded/recording_000000030340_trials_3.default,0.0007206952868727967,None,space,9.657335409006919,83.60685821500374,None,83.60685821500374,None,,,,,,,,,sub-008,001,2023_Apr_11_1119,cans_4-2-23,2021.2.3,120.04411668156534,
train2017_coco_4866/000000030437.jpg,0,0,0,0,0,4,4,4,,,,,,,94.20657578599639,None,/Users/graziano-isaac/Desktop/CANS/v2_Behavioral/data/sub-008_cans_4-2-23_2023_Apr_11_1119_mic_recorded/recording_000000030437_trials_4.default,0.0025213891931343824,None,space,11.447782629998983,95.0564129849954,None,95.0564129849954,None,,,,,,,,,sub-008,001,2023_Apr_11_1119,cans_4-2-23,2021.2.3,120.04411668156534,
train2017_coco_4866/000000030478.jpg,0,0,0,0,0,5,5,5,,,,,,,107.44056416400417,None,/Users/graziano-isaac/Desktop/CANS/v2_Behavioral/data/sub-008_cans_4-2-23_2023_Apr_11_1119_mic_recorded/recording_000000030478_trials_5.default,0.00129325820307713,None,space,14.028993115993217,108.29921022200142,None,108.29921022200142,None,,,,,,,,,sub-008,001,2023_Apr_11_1119,cans_4-2-23,2021.2.3,120.04411668156534,
train2017_coco_4866/000000030779.jpg,0,0,0,0,0,6,6,6,,,,,,,123.26698680200207,None,/Users/graziano-isaac/Desktop/CANS/v2_Behavioral/data/sub-008_cans_4-2-23_2023_Apr_11_1119_mic_recorded/recording_000000030779_trials_6.default,0.00022856719442643225,None,space,8.71566405199701,124.13253429200267,None,124.13253429200267,None,,,,,,,,,sub-008,001,2023_Apr_11_1119,cans_4-2-23,2021.2.3,120.04411668156534,
train2017_coco_4866/000000030822.jpg,0,0,0,0,0,7,7,7,,,,,,,133.7911312130018,None,/Users/graziano-isaac/Desktop/CANS/v2_Behavioral/data/sub-008_cans_4-2-23_2023_Apr_11_1119_mic_recorded/recording_000000030822_trials_7.default,0.002771914209006354,None,space,10.12724658199295,134.64094999399094,None,134.64094999399094,None,,,,,,,,,sub-008,001,2023_Apr_11_1119,cans_4-2-23,2021.2.3,120.04411668156534,
train2017_coco_4866/000000030888.jpg,0,0,0,0,0,8,8,8,,,,,,,145.70808555799886,None,/Users/graziano-isaac/Desktop/CANS/v2_Behavioral/data/sub-008_cans_4-2-23_2023_Apr_11_1119_mic_recorded/recording_000000030888_trials_8.default,0.007670111284824088,None,space,10.642620206999709,146.5655868169997,None,146.5655868169997,None,,,,,,,,,sub-008,001,2023_Apr_11_1119,cans_4-2-23,2021.2.3,120.04411668156534,
train2017_coco_4866/000000030992.jpg,0,0,0,0,0,9,9,9,,,,,,,158.140759300004,None,/Users/graziano-isaac/Desktop/CANS/v2_Behavioral/data/sub-008_cans_4-2-23_2023_Apr_11_1119_mic_recorded/recording_000000030992_trials_9.default,0.00040270129102282226,None,space,9.736930794999353,159.00728893199994,None,159.00728893199994,None,,,,,,,,,sub-008,001,2023_Apr_11_1119,cans_4-2-23,2021.2.3,120.04411668156534,
train2017_coco_4866/000000031090.jpg,0,0,0,0,0,10,10,10,,,,,,,169.683105788994,None,/Users/graziano-isaac/Desktop/CANS/v2_Behavioral/data/sub-008_cans_4-2-23_2023_Apr_11_1119_mic_recorded/recording_000000031090_trials_10.default,0.0017480982060078532,None,space,9.210628184999223,170.54156057999353,None,170.54156057999353,None,,,,,,,,,sub-008,001,2023_Apr_11_1119,cans_4-2-23,2021.2.3,120.04411668156534,
train2017_coco_4866/000000031273.jpg,0,0,0,0,0,11,11,11,,,,,,,180.69916798299528,None,/Users/graziano-isaac/Desktop/CANS/v2_Behavioral/data/sub-008_cans_4-2-23_2023_Apr_11_1119_mic_recorded/recording_000000031273_trials_11.default,0.007955907392897643,None,space,10.929877564005437,181.55833603200153,None,181.55833603200153,None,,,,,,,,,sub-008,001,2023_Apr_11_1119,cans_4-2-23,2021.2.3,120.04411668156534,
train2017_coco_4866/000000031358.jpg,0,0,0,0,0,12,12,12,,,,,,,193.43319357799191,None,/Users/graziano-isaac/Desktop/CANS/v2_Behavioral/data/sub-008_cans_4-2-23_2023_Apr_11_1119_mic_recorded/recording_000000031358_trials_12.default,0.004580742301186547,None,space,7.907870295006433,194.29235140999663,None,194.29235140999663,None,,,,,,,,,sub-008,001,2023_Apr_11_1119,cans_4-2-23,2021.2.3,120.04411668156534,
train2017_coco_4866/000000031913.jpg,0,0,0,0,0,13,13,13,,,,,,,203.125403869999,None,/Users/graziano-isaac/Desktop/CANS/v2_Behavioral/data/sub-008_cans_4-2-23_2023_Apr_11_1119_mic_recorded/recording_000000031913_trials_13.default,0.005184676207136363,None,space,11.281010232007247,203.9751898079994,None,203.9751898079994,None,,,,,,,,,sub-008,001,2023_Apr_11_1119,cans_4-2-23,2021.2.3,120.04411668156534,
train2017_coco_4866/000000031923.jpg,0,0,0,0,0,14,14,14,,,,,,,216.20014343799266,None,/Users/graziano-isaac/Desktop/CANS/v2_Behavioral/data/sub-008_cans_4-2-23_2023_Apr_11_1119_mic_recorded/recording_000000031923_trials_14.default,0.0036247782118152827,None,space,13.629350456001703,217.0428619509912,None,217.0428619509912,None,,,,,,,,,sub-008,001,2023_Apr_11_1119,cans_4-2-23,2021.2.3,120.04411668156534,
train2017_coco_4866/000000032061.jpg,0,0,0,0,0,15,15,15,,,,,,,231.6166339420015,None,/Users/graziano-isaac/Desktop/CANS/v2_Behavioral/data/sub-008_cans_4-2-23_2023_Apr_11_1119_mic_recorded/recording_000000032061_trials_15.default,0.007749347292701714,None,space,7.812857885000994,232.47536706399114,None,232.47536706399114,None,,,,,,,,,sub-008,001,2023_Apr_11_1119,cans_4-2-23,2021.2.3,120.04411668156534,
train2017_coco_4866/000000032068.jpg,0,0,0,0,0,16,16,16,,,,,,,241.22562192300393,None,/Users/graziano-isaac/Desktop/CANS/v2_Behavioral/data/sub-008_cans_4-2-23_2023_Apr_11_1119_mic_recorded/recording_000000032068_trials_16.default,0.005320606302120723,None,space,6.925169634996564,242.0830494690017,None,242.0830494690017,None,,,,,,,,,sub-008,001,2023_Apr_11_1119,cans_4-2-23,2021.2.3,120.04411668156534,
train2017_coco_4866/000000032129.jpg,0,0,0,0,0,17,17,17,,,,,,,249.94210253999336,None,/Users/graziano-isaac/Desktop/CANS/v2_Behavioral/data/sub-008_cans_4-2-23_2023_Apr_11_1119_mic_recorded/recording_000000032129_trials_17.default,0.0006312061887001619,None,space,11.895812784990994,250.8004148369946,None,250.8004148369946,None,,,,,,,,,sub-008,001,2023_Apr_11_1119,cans_4-2-23,2021.2.3,120.04411668156534,
train2017_coco_4866/000000032575.jpg,0,0,0,0,0,18,18,18,,,,,,,263.64177524599654,None,/Users/graziano-isaac/Desktop/CANS/v2_Behavioral/data/sub-008_cans_4-2-23_2023_Apr_11_1119_mic_recorded/recording_000000032575_trials_18.default,0.0017671521927695721,None,space,9.16439877099765,264.4918258800026,None,264.4918258800026,None,,,,,,,,,sub-008,001,2023_Apr_11_1119,cans_4-2-23,2021.2.3,120.04411668156534,
train2017_coco_4866/000000032674.jpg,0,0,0,0,0,19,19,19,,,,,,,274.5926576960046,None,/Users/graziano-isaac/Desktop/CANS/v2_Behavioral/data/sub-008_cans_4-2-23_2023_Apr_11_1119_mic_recorded/recording_000000032674_trials_19.default,0.007984911295352504,None,space,8.749056125001516,275.4511677279952,None,275.4511677279952,None,,,,,,,,,sub-008,001,2023_Apr_11_1119,cans_4-2-23,2021.2.3,120.04411668156534,
train2017_coco_4866/000000032932.jpg,0,0,0,0,0,20,20,20,,,,,,,285.1344965790049,None,/Users/graziano-isaac/Desktop/CANS/v2_Behavioral/data/sub-008_cans_4-2-23_2023_Apr_11_1119_mic_recorded/recording_000000032932_trials_20.default,0.0009568552195560187,None,space,13.656187536005746,285.9920200119959,None,285.9920200119959,None,,,,,,,,,sub-008,001,2023_Apr_11_1119,cans_4-2-23,2021.2.3,120.04411668156534,
train2017_coco_4866/000000033156.jpg,0,0,0,0,0,21,21,21,,,,,,,300.5926246570016,None,/Users/graziano-isaac/Desktop/CANS/v2_Behavioral/data/sub-008_cans_4-2-23_2023_Apr_11_1119_mic_recorded/recording_000000033156_trials_21.default,0.0021564042108366266,None,space,9.589156627000193,301.4510523479985,None,301.4510523479985,None,,,,,,,,,sub-008,001,2023_Apr_11_1119,cans_4-2-23,2021.2.3,120.04411668156534,
train2017_coco_4866/000000033408.jpg,0,0,0,0,0,22,22,22,,,,,,,311.97617850700044,None,/Users/graziano-isaac/Desktop/CANS/v2_Behavioral/data/sub-008_cans_4-2-23_2023_Apr_11_1119_mic_recorded/recording_000000033408_trials_22.default,0.005653650208842009,None,space,9.73403285400127,312.8261925400002,None,312.8261925400002,None,,,,,,,,,sub-008,001,2023_Apr_11_1119,cans_4-2-23,2021.2.3,120.04411668156534,
train2017_coco_4866/000000033593.jpg,0,0,0,0,0,23,23,23,,,,,,,323.5012272390013,None,/Users/graziano-isaac/Desktop/CANS/v2_Behavioral/data/sub-008_cans_4-2-23_2023_Apr_11_1119_mic_recorded/recording_000000033593_trials_23.default,0.002774098204099573,None,space,9.51262934099941,324.3516060849943,None,324.3516060849943,None,,,,,,,,,sub-008,001,2023_Apr_11_1119,cans_4-2-23,2021.2.3,120.04411668156534,
train2017_coco_4866/000000033695.jpg,0,0,0,0,0,24,24,24,,,,,,,334.8007113759959,None,/Users/graziano-isaac/Desktop/CANS/v2_Behavioral/data/sub-008_cans_4-2-23_2023_Apr_11_1119_mic_recorded/recording_000000033695_trials_24.default,0.00457632630423177,None,space,13.242819113002042,335.66141235799296,None,335.66141235799296,None,,,,,,,,,sub-008,001,2023_Apr_11_1119,cans_4-2-23,2021.2.3,120.04411668156534,
train2017_coco_4866/000000033717.jpg,0,0,0,0,0,25,25,25,,,,,,,349.84503629199753,None,/Users/graziano-isaac/Desktop/CANS/v2_Behavioral/data/sub-008_cans_4-2-23_2023_Apr_11_1119_mic_recorded/recording_000000033717_trials_25.default,0.0005951632047072053,None,space,12.346640677991672,350.709593349995,None,350.709593349995,None,,,,,,,,,sub-008,001,2023_Apr_11_1119,cans_4-2-23,2021.2.3,120.04411668156534,
train2017_coco_4866/000000033815.jpg,0,0,0,0,0,26,26,26,,,,,,,364.00137263200304,None,/Users/graziano-isaac/Desktop/CANS/v2_Behavioral/data/sub-008_cans_4-2-23_2023_Apr_11_1119_mic_recorded/recording_000000033815_trials_26.default,0.007870722300140187,None,space,9.15609503199812,364.852142593998,None,364.852142593998,None,,,,,,,,,sub-008,001,2023_Apr_11_1119,cans_4-2-23,2021.2.3,120.04411668156534,
train2017_coco_4866/000000033828.jpg,0,0,0,0,0,27,27,27,,,,,,,374.94301597999583,None,/Users/graziano-isaac/Desktop/CANS/v2_Behavioral/data/sub-008_cans_4-2-23_2023_Apr_11_1119_mic_recorded/recording_000000033828_trials_27.default,0.0022510471899295226,None,space,12.982586232988979,375.8016513199982,None,375.8016513199982,None,,,,,,,,,sub-008,001,2023_Apr_11_1119,cans_4-2-23,2021.2.3,120.04411668156534,
train2017_coco_4866/000000034074.jpg,0,0,0,0,0,28,28,28,,,,,,,389.7274501560023,None,/Users/graziano-isaac/Desktop/CANS/v2_Behavioral/data/sub-008_cans_4-2-23_2023_Apr_11_1119_mic_recorded/recording_000000034074_trials_28.default,0.006819383299443871,None,space,12.270489072005148,390.5857654010033,None,390.5857654010033,None,,,,,,,,,sub-008,001,2023_Apr_11_1119,cans_4-2-23,2021.2.3,120.04411668156534,
train2017_coco_4866/000000034430.jpg,0,0,0,0,0,29,29,29,,,,,,,403.79530061800324,None,/Users/graziano-isaac/Desktop/CANS/v2_Behavioral/data/sub-008_cans_4-2-23_2023_Apr_11_1119_mic_recorded/recording_000000034430_trials_29.default,0.0056416572915622965,None,space,6.052699292005855,404.651531615993,None,404.651531615993,None,,,,,,,,,sub-008,001,2023_Apr_11_1119,cans_4-2-23,2021.2.3,120.04411668156534,
train2017_coco_4866/000000034702.jpg,0,0,0,0,0,30,30,30,,,,,,,411.64394681899284,None,/Users/graziano-isaac/Desktop/CANS/v2_Behavioral/data/sub-008_cans_4-2-23_2023_Apr_11_1119_mic_recorded/recording_000000034702_trials_30.default,0.0075794313015649095,None,space,6.417798971990123,412.49442904800526,None,412.49442904800526,None,,,,,,,,,sub-008,001,2023_Apr_11_1119,cans_4-2-23,2021.2.3,120.04411668156534,
train2017_coco_4866/000000034993.jpg,0,0,0,0,0,31,31,31,,,,,,,419.85173958899395,None,/Users/graziano-isaac/Desktop/CANS/v2_Behavioral/data/sub-008_cans_4-2-23_2023_Apr_11_1119_mic_recorded/recording_000000034993_trials_31.default,0.0015949272201396525,None,space,5.0986641500057885,420.7015849809977,None,420.7015849809977,None,,,,,,,,,sub-008,001,2023_Apr_11_1119,cans_4-2-23,2021.2.3,120.04411668156534,
train2017_coco_4866/000000035076.jpg,0,0,0,0,0,32,32,32,,,,,,,426.7352761509974,None,/Users/graziano-isaac/Desktop/CANS/v2_Behavioral/data/sub-008_cans_4-2-23_2023_Apr_11_1119_mic_recorded/recording_000000035076_trials_32.default,0.007832736286218278,None,space,9.077730078002787,427.5944944770017,None,427.5944944770017,None,,,,,,,,,sub-008,001,2023_Apr_11_1119,cans_4-2-23,2021.2.3,120.04411668156534,
train2017_coco_4866/000000035272.jpg,0,0,0,0,0,33,33,33,,,,,,,437.610908622999,None,/Users/graziano-isaac/Desktop/CANS/v2_Behavioral/data/sub-008_cans_4-2-23_2023_Apr_11_1119_mic_recorded/recording_000000035272_trials_33.default,0.007237095283926465,None,space,7.17071076099819,438.469540399994,None,438.469540399994,None,,,,,,,,,sub-008,001,2023_Apr_11_1119,cans_4-2-23,2021.2.3,120.04411668156534,
train2017_coco_4866/000000035322.jpg,0,0,0,0,0,34,34,34,,,,,,,446.5774177699932,None,/Users/graziano-isaac/Desktop/CANS/v2_Behavioral/data/sub-008_cans_4-2-23_2023_Apr_11_1119_mic_recorded/recording_000000035322_trials_34.default,0.007184093294199556,None,space,9.852587357992888,447.4356568420044,None,447.4356568420044,None,,,,,,,,,sub-008,001,2023_Apr_11_1119,cans_4-2-23,2021.2.3,120.04411668156534,
train2017_coco_4866/000000035424.jpg,0,0,0,0,0,35,35,35,,,,,,,458.22769492299994,None,/Users/graziano-isaac/Desktop/CANS/v2_Behavioral/data/sub-008_cans_4-2-23_2023_Apr_11_1119_mic_recorded/recording_000000035424_trials_35.default,0.0008848162106005475,None,space,7.22683440700348,459.08540595100203,None,459.08540595100203,None,,,,,,,,,sub-008,001,2023_Apr_11_1119,cans_4-2-23,2021.2.3,120.04411668156534,
train2017_coco_4866/000000036017.jpg,0,0,0,0,0,36,36,36,,,,,,,467.24532928799454,None,/Users/graziano-isaac/Desktop/CANS/v2_Behavioral/data/sub-008_cans_4-2-23_2023_Apr_11_1119_mic_recorded/recording_000000036017_trials_36.default,0.00752738029405009,None,space,13.048978406994138,468.1032650260022,None,468.1032650260022,None,,,,,,,,,sub-008,001,2023_Apr_11_1119,cans_4-2-23,2021.2.3,120.04411668156534,
train2017_coco_4866/000000036373.jpg,0,0,0,0,0,37,37,37,,,,,,,482.0942274160043,None,/Users/graziano-isaac/Desktop/CANS/v2_Behavioral/data/sub-008_cans_4-2-23_2023_Apr_11_1119_mic_recorded/recording_000000036373_trials_37.default,0.0023512342013418674,None,space,5.303305320994696,482.95292612900084,None,482.95292612900084,None,,,,,,,,,sub-008,001,2023_Apr_11_1119,cans_4-2-23,2021.2.3,120.04411668156534,
train2017_coco_4866/000000036439.jpg,0,0,0,0,0,38,38,38,,,,,,,489.1940580079972,None,/Users/graziano-isaac/Desktop/CANS/v2_Behavioral/data/sub-008_cans_4-2-23_2023_Apr_11_1119_mic_recorded/recording_000000036439_trials_38.default,0.007930100298835896,None,space,7.9400201170064975,490.04423116199905,None,490.04423116199905,None,,,,,,,,,sub-008,001,2023_Apr_11_1119,cans_4-2-23,2021.2.3,120.04411668156534,
train2017_coco_4866/000000036469.jpg,0,0,0,0,0,39,39,39,,,,,,,498.9280617829936,None,/Users/graziano-isaac/Desktop/CANS/v2_Behavioral/data/sub-008_cans_4-2-23_2023_Apr_11_1119_mic_recorded/recording_000000036469_trials_39.default,0.0009429271885892376,None,space,4.517971156004933,499.77827283799706,None,499.77827283799706,None,,,,,,,,,sub-008,001,2023_Apr_11_1119,cans_4-2-23,2021.2.3,120.04411668156534,
,0,0,0,0,,,,,,,,,,,,,,,,,,,,,,505.0776769649965,None,space,1.642646976004471,505.0776769649965,None,,,sub-008,001,2023_Apr_11_1119,cans_4-2-23,2021.2.3,120.04411668156534,
train2017_coco_4866/000000036768.jpg,1,0,1,0,0,0,0,0,,,,,,,None,None,/Users/graziano-isaac/Desktop/CANS/v2_Behavioral/data/sub-008_cans_4-2-23_2023_Apr_11_1119_mic_recorded/recording_000000036768_trials_0.default,0.0013798548025079072,None,space,12.316315125994151,510.0199325729918,None,510.0199325729918,None,,,,,,,,,sub-008,001,2023_Apr_11_1119,cans_4-2-23,2021.2.3,120.04411668156534,
train2017_coco_4866/000000036805.jpg,1,0,1,0,0,1,1,1,,,,,,,523.2786365039938,None,/Users/graziano-isaac/Desktop/CANS/v2_Behavioral/data/sub-008_cans_4-2-23_2023_Apr_11_1119_mic_recorded/recording_000000036805_trials_1.default,0.0038042111991671845,None,space,5.086143523993087,524.1301161239971,None,524.1301161239971,None,,,,,,,,,sub-008,001,2023_Apr_11_1119,cans_4-2-23,2021.2.3,120.04411668156534,
train2017_coco_4866/000000036919.jpg,1,0,1,0,0,2,2,2,,,,,,,530.1538172019937,None,/Users/graziano-isaac/Desktop/CANS/v2_Behavioral/data/sub-008_cans_4-2-23_2023_Apr_11_1119_mic_recorded/recording_000000036919_trials_2.default,0.0057141302968375385,None,space,8.620715710989316,531.0035394890001,None,531.0035394890001,None,,,,,,,,,sub-008,001,2023_Apr_11_1119,cans_4-2-23,2021.2.3,120.04411668156534,
train2017_coco_4866/000000036966.jpg,1,0,1,0,0,3,3,3,,,,,,,540.5616310859914,None,/Users/graziano-isaac/Desktop/CANS/v2_Behavioral/data/sub-008_cans_4-2-23_2023_Apr_11_1119_mic_recorded/recording_000000036966_trials_3.default,0.00211604121432174,None,space,9.067842110001948,541.4203998220037,None,541.4203998220037,None,,,,,,,,,sub-008,001,2023_Apr_11_1119,cans_4-2-23,2021.2.3,120.04411668156534,
train2017_coco_4866/000000036990.jpg,1,0,1,0,0,4,4,4,,,,,,,551.4282634999981,None,/Users/graziano-isaac/Desktop/CANS/v2_Behavioral/data/sub-008_cans_4-2-23_2023_Apr_11_1119_mic_recorded/recording_000000036990_trials_4.default,0.0017209252109751105,None,space,7.504927046000375,552.2793293779978,None,552.2793293779978,None,,,,,,,,,sub-008,001,2023_Apr_11_1119,cans_4-2-23,2021.2.3,120.04411668156534,
train2017_coco_4866/000000037062.jpg,1,0,1,0,0,5,5,5,,,,,,,560.7204932399909,None,/Users/graziano-isaac/Desktop/CANS/v2_Behavioral/data/sub-008_cans_4-2-23_2023_Apr_11_1119_mic_recorded/recording_000000037062_trials_5.default,0.007565166291897185,None,space,15.63765295498888,561.5785998579959,None,561.5785998579959,None,,,,,,,,,sub-008,001,2023_Apr_11_1119,cans_4-2-23,2021.2.3,120.04411668156534,
train2017_coco_4866/000000037063.jpg,1,0,1,0,0,6,6,6,,,,,,,578.1620097230043,None,/Users/graziano-isaac/Desktop/CANS/v2_Behavioral/data/sub-008_cans_4-2-23_2023_Apr_11_1119_mic_recorded/recording_000000037063_trials_6.default,0.0031980721978470683,None,space,7.682321073007188,579.0139363679918,None,579.0139363679918,None,,,,,,,,,sub-008,001,2023_Apr_11_1119,cans_4-2-23,2021.2.3,120.04411668156534,
train2017_coco_4866/000000037074.jpg,1,0,1,0,0,7,7,7,,,,,,,587.6289224950015,None,/Users/graziano-isaac/Desktop/CANS/v2_Behavioral/data/sub-008_cans_4-2-23_2023_Apr_11_1119_mic_recorded/recording_000000037074_trials_7.default,0.0014448621950577945,None,space,13.593215660002897,588.4870405300026,None,588.4870405300026,None,,,,,,,,,sub-008,001,2023_Apr_11_1119,cans_4-2-23,2021.2.3,120.04411668156534,
train2017_coco_4866/000000037102.jpg,1,0,1,0,0,8,8,8,,,,,,,603.020358594993,None,/Users/graziano-isaac/Desktop/CANS/v2_Behavioral/data/sub-008_cans_4-2-23_2023_Apr_11_1119_mic_recorded/recording_000000037102_trials_8.default,0.003888950202963315,None,space,11.279877387001761,603.864383313994,None,603.864383313994,None,,,,,,,,,sub-008,001,2023_Apr_11_1119,cans_4-2-23,2021.2.3,120.04411668156534,
train2017_coco_4866/000000037169.jpg,1,0,1,0,0,9,9,9,,,,,,,616.0878252639959,None,/Users/graziano-isaac/Desktop/CANS/v2_Behavioral/data/sub-008_cans_4-2-23_2023_Apr_11_1119_mic_recorded/recording_000000037169_trials_9.default,0.006347629299852997,None,space,12.64672013001109,616.9375427859923,None,616.9375427859923,None,,,,,,,,,sub-008,001,2023_Apr_11_1119,cans_4-2-23,2021.2.3,120.04411668156534,
train2017_coco_4866/000000037244.jpg,1,0,1,0,0,10,10,10,,,,,,,630.5297822790017,None,/Users/graziano-isaac/Desktop/CANS/v2_Behavioral/data/sub-008_cans_4-2-23_2023_Apr_11_1119_mic_recorded/recording_000000037244_trials_10.default,0.001022757205646485,None,space,8.668612562003545,631.3796535510046,None,631.3796535510046,None,,,,,,,,,sub-008,001,2023_Apr_11_1119,cans_4-2-23,2021.2.3,120.04411668156534,
train2017_coco_4866/000000037396.jpg,1,0,1,0,0,11,11,11,,,,,,,640.9878996719926,None,/Users/graziano-isaac/Desktop/CANS/v2_Behavioral/data/sub-008_cans_4-2-23_2023_Apr_11_1119_mic_recorded/recording_000000037396_trials_11.default,0.0034073482966050506,None,space,12.136348525003996,641.8399197800027,None,641.8399197800027,None,,,,,,,,,sub-008,001,2023_Apr_11_1119,cans_4-2-23,2021.2.3,120.04411668156534,
train2017_coco_4866/000000037456.jpg,1,0,1,0,0,12,12,12,,,,,,,654.9211053159961,None,/Users/graziano-isaac/Desktop/CANS/v2_Behavioral/data/sub-008_cans_4-2-23_2023_Apr_11_1119_mic_recorded/recording_000000037456_trials_12.default,0.004430211192811839,None,space,11.372863419004716,655.7633934460027,None,655.7633934460027,None,,,,,,,,,sub-008,001,2023_Apr_11_1119,cans_4-2-23,2021.2.3,120.04411668156534,
train2017_coco_4866/000000038073.jpg,1,0,1,0,0,13,13,13,,,,,,,668.0726273030014,None,/Users/graziano-isaac/Desktop/CANS/v2_Behavioral/data/sub-008_cans_4-2-23_2023_Apr_11_1119_mic_recorded/recording_000000038073_trials_13.default,0.0033386292052455246,None,space,13.84649755099963,668.9297757089953,None,668.9297757089953,None,,,,,,,,,sub-008,001,2023_Apr_11_1119,cans_4-2-23,2021.2.3,120.04411668156534,
train2017_coco_4866/000000038277.jpg,1,0,1,0,0,14,14,14,,,,,,,683.7218327110022,None,/Users/graziano-isaac/Desktop/CANS/v2_Behavioral/data/sub-008_cans_4-2-23_2023_Apr_11_1119_mic_recorded/recording_000000038277_trials_14.default,0.0013513812009477988,None,space,8.547695621004095,684.5805728839914,None,684.5805728839914,None,,,,,,,,,sub-008,001,2023_Apr_11_1119,cans_4-2-23,2021.2.3,120.04411668156534,
train2017_coco_4866/000000038375.jpg,1,0,1,0,0,15,15,15,,,,,,,694.0637079959997,None,/Users/graziano-isaac/Desktop/CANS/v2_Behavioral/data/sub-008_cans_4-2-23_2023_Apr_11_1119_mic_recorded/recording_000000038375_trials_15.default,0.0037004391924710944,None,space,6.10947471599502,694.9148106700013,None,694.9148106700013,None,,,,,,,,,sub-008,001,2023_Apr_11_1119,cans_4-2-23,2021.2.3,120.04411668156534,
train2017_coco_4866/000000038589.jpg,1,0,1,0,0,16,16,16,,,,,,,701.9639915479929,None,/Users/graziano-isaac/Desktop/CANS/v2_Behavioral/data/sub-008_cans_4-2-23_2023_Apr_11_1119_mic_recorded/recording_000000038589_trials_16.default,0.0011893242044607177,None,space,6.977872838004259,702.8224002520001,None,702.8224002520001,None,,,,,,,,,sub-008,001,2023_Apr_11_1119,cans_4-2-23,2021.2.3,120.04411668156534,
train2017_coco_4866/000000038663.jpg,1,0,1,0,0,17,17,17,,,,,,,710.7387041239999,None,/Users/graziano-isaac/Desktop/CANS/v2_Behavioral/data/sub-008_cans_4-2-23_2023_Apr_11_1119_mic_recorded/recording_000000038663_trials_17.default,0.008249996302765794,None,space,10.867629558997578,711.5966437839961,None,711.5966437839961,None,,,,,,,,,sub-008,001,2023_Apr_11_1119,cans_4-2-23,2021.2.3,120.04411668156534,
train2017_coco_4866/000000038753.jpg,1,0,1,0,0,18,18,18,,,,,,,723.396775553003,None,/Users/graziano-isaac/Desktop/CANS/v2_Behavioral/data/sub-008_cans_4-2-23_2023_Apr_11_1119_mic_recorded/recording_000000038753_trials_18.default,0.002905760207795538,None,space,5.553033087999211,724.2552494949923,None,724.2552494949923,None,,,,,,,,,sub-008,001,2023_Apr_11_1119,cans_4-2-23,2021.2.3,120.04411668156534,
train2017_coco_4866/000000039040.jpg,1,0,1,0,0,19,19,19,,,,,,,730.747368958997,None,/Users/graziano-isaac/Desktop/CANS/v2_Behavioral/data/sub-008_cans_4-2-23_2023_Apr_11_1119_mic_recorded/recording_000000039040_trials_19.default,0.0049881322047440335,None,space,12.483048530004453,731.597216270995,None,731.597216270995,None,,,,,,,,,sub-008,001,2023_Apr_11_1119,cans_4-2-23,2021.2.3,120.04411668156534,
train2017_coco_4866/000000039064.jpg,1,0,1,0,0,20,20,20,,,,,,,745.0228730560048,None,/Users/graziano-isaac/Desktop/CANS/v2_Behavioral/data/sub-008_cans_4-2-23_2023_Apr_11_1119_mic_recorded/recording_000000039064_trials_20.default,0.00505967419303488,None,space,12.375698151008692,745.8645695500018,None,745.8645695500018,None,,,,,,,,,sub-008,001,2023_Apr_11_1119,cans_4-2-23,2021.2.3,120.04411668156534,
train2017_coco_4866/000000039078.jpg,1,0,1,0,0,21,21,21,,,,,,,759.1890652849979,None,/Users/graziano-isaac/Desktop/CANS/v2_Behavioral/data/sub-008_cans_4-2-23_2023_Apr_11_1119_mic_recorded/recording_000000039078_trials_21.default,7.577621727250516e-05,None,space,9.049321251004585,760.0389623119991,None,760.0389623119991,None,,,,,,,,,sub-008,001,2023_Apr_11_1119,cans_4-2-23,2021.2.3,120.04411668156534,
train2017_coco_4866/000000039080.jpg,1,0,1,0,0,22,22,22,,,,,,,770.0309873459919,None,/Users/graziano-isaac/Desktop/CANS/v2_Behavioral/data/sub-008_cans_4-2-23_2023_Apr_11_1119_mic_recorded/recording_000000039080_trials_22.default,0.007067513288347982,None,space,7.230996780999703,770.8812784539914,None,770.8812784539914,None,,,,,,,,,sub-008,001,2023_Apr_11_1119,cans_4-2-23,2021.2.3,120.04411668156534,
train2017_coco_4866/000000039185.jpg,1,0,1,0,0,23,23,23,,,,,,,779.0478286549915,None,/Users/graziano-isaac/Desktop/CANS/v2_Behavioral/data/sub-008_cans_4-2-23_2023_Apr_11_1119_mic_recorded/recording_000000039185_trials_23.default,0.0073366692959098145,None,space,10.1657871829957,779.9065020099952,None,779.9065020099952,None,,,,,,,,,sub-008,001,2023_Apr_11_1119,cans_4-2-23,2021.2.3,120.04411668156534,
train2017_coco_4866/000000039270.jpg,1,0,1,0,0,24,24,24,,,,,,,791.0145268469932,None,/Users/graziano-isaac/Desktop/CANS/v2_Behavioral/data/sub-008_cans_4-2-23_2023_Apr_11_1119_mic_recorded/recording_000000039270_trials_24.default,0.002447266218950972,None,space,13.150801419993513,791.8734637390007,None,791.8734637390007,None,,,,,,,,,sub-008,001,2023_Apr_11_1119,cans_4-2-23,2021.2.3,120.04411668156534,
train2017_coco_4866/000000039321.jpg,1,0,1,0,0,25,25,25,,,,,,,805.9647480300046,None,/Users/graziano-isaac/Desktop/CANS/v2_Behavioral/data/sub-008_cans_4-2-23_2023_Apr_11_1119_mic_recorded/recording_000000039321_trials_25.default,0.00790262829104904,None,space,6.737174410009175,806.8231117760006,None,806.8231117760006,None,,,,,,,,,sub-008,001,2023_Apr_11_1119,cans_4-2-23,2021.2.3,120.04411668156534,
train2017_coco_4866/000000039447.jpg,1,0,1,0,0,26,26,26,,,,,,,814.4982792630035,None,/Users/graziano-isaac/Desktop/CANS/v2_Behavioral/data/sub-008_cans_4-2-23_2023_Apr_11_1119_mic_recorded/recording_000000039447_trials_26.default,0.0026614072121446952,None,space,8.579881058001774,815.3483792869956,None,815.3483792869956,None,,,,,,,,,sub-008,001,2023_Apr_11_1119,cans_4-2-23,2021.2.3,120.04411668156534,
train2017_coco_4866/000000039470.jpg,1,0,1,0,0,27,27,27,,,,,,,824.8654793619935,None,/Users/graziano-isaac/Desktop/CANS/v2_Behavioral/data/sub-008_cans_4-2-23_2023_Apr_11_1119_mic_recorded/recording_000000039470_trials_27.default,0.003945415388443507,None,space,7.363124289011466,825.7331711389998,None,825.7331711389998,None,,,,,,,,,sub-008,001,2023_Apr_11_1119,cans_4-2-23,2021.2.3,120.04411668156534,
train2017_coco_4866/000000039617.jpg,1,0,1,0,0,28,28,28,,,,,,,834.0321405930008,None,/Users/graziano-isaac/Desktop/CANS/v2_Behavioral/data/sub-008_cans_4-2-23_2023_Apr_11_1119_mic_recorded/recording_000000039617_trials_28.default,0.007791240292135626,None,space,5.861897687995224,834.8903891999944,None,834.8903891999944,None,,,,,,,,,sub-008,001,2023_Apr_11_1119,cans_4-2-23,2021.2.3,120.04411668156534,
train2017_coco_4866/000000039671.jpg,1,0,1,0,0,29,29,29,,,,,,,841.6822900249972,None,/Users/graziano-isaac/Desktop/CANS/v2_Behavioral/data/sub-008_cans_4-2-23_2023_Apr_11_1119_mic_recorded/recording_000000039671_trials_29.default,0.002248243210487999,None,space,7.115492935990915,842.5407976370043,None,842.5407976370043,None,,,,,,,,,sub-008,001,2023_Apr_11_1119,cans_4-2-23,2021.2.3,120.04411668156534,
train2017_coco_4866/000000039777.jpg,1,0,1,0,0,30,30,30,,,,,,,850.5920168659941,None,/Users/graziano-isaac/Desktop/CANS/v2_Behavioral/data/sub-008_cans_4-2-23_2023_Apr_11_1119_mic_recorded/recording_000000039777_trials_30.default,0.002820160298142582,None,space,6.527722711995011,851.456575780001,None,851.456575780001,None,,,,,,,,,sub-008,001,2023_Apr_11_1119,cans_4-2-23,2021.2.3,120.04411668156534,
train2017_coco_4866/000000039778.jpg,1,0,1,0,0,31,31,31,,,,,,,858.923876136003,None,/Users/graziano-isaac/Desktop/CANS/v2_Behavioral/data/sub-008_cans_4-2-23_2023_Apr_11_1119_mic_recorded/recording_000000039778_trials_31.default,0.0036726991966133937,None,space,5.664991293000639,859.7752974519972,None,859.7752974519972,None,,,,,,,,,sub-008,001,2023_Apr_11_1119,cans_4-2-23,2021.2.3,120.04411668156534,
train2017_coco_4866/000000039928.jpg,1,0,1,0,0,32,32,32,,,,,,,866.382113375992,None,/Users/graziano-isaac/Desktop/CANS/v2_Behavioral/data/sub-008_cans_4-2-23_2023_Apr_11_1119_mic_recorded/recording_000000039928_trials_32.default,0.00051256621372886,None,space,10.376211167007568,867.2320804409974,None,867.2320804409974,None,,,,,,,,,sub-008,001,2023_Apr_11_1119,cans_4-2-23,2021.2.3,120.04411668156534,
train2017_coco_4866/000000040111.jpg,1,0,1,0,0,33,33,33,,,,,,,878.5491524539975,None,/Users/graziano-isaac/Desktop/CANS/v2_Behavioral/data/sub-008_cans_4-2-23_2023_Apr_11_1119_mic_recorded/recording_000000040111_trials_33.default,0.004293118210625835,None,space,8.304690193006536,879.39159965,None,879.39159965,None,,,,,,,,,sub-008,001,2023_Apr_11_1119,cans_4-2-23,2021.2.3,120.04411668156534,
train2017_coco_4866/000000040407.jpg,1,0,1,0,0,34,34,34,,,,,,,888.6319497420045,None,/Users/graziano-isaac/Desktop/CANS/v2_Behavioral/data/sub-008_cans_4-2-23_2023_Apr_11_1119_mic_recorded/recording_000000040407_trials_34.default,0.008193608286092058,None,space,11.341044012995553,889.4912616039946,None,889.4912616039946,None,,,,,,,,,sub-008,001,2023_Apr_11_1119,cans_4-2-23,2021.2.3,120.04411668156534,
train2017_coco_4866/000000040446.jpg,1,0,1,0,0,35,35,35,,,,,,,901.7657819150045,None,/Users/graziano-isaac/Desktop/CANS/v2_Behavioral/data/sub-008_cans_4-2-23_2023_Apr_11_1119_mic_recorded/recording_000000040446_trials_35.default,0.00022748520132154226,None,space,7.800724300002912,902.6235769289924,None,902.6235769289924,None,,,,,,,,,sub-008,001,2023_Apr_11_1119,cans_4-2-23,2021.2.3,120.04411668156534,
train2017_coco_4866/000000040449.jpg,1,0,1,0,0,36,36,36,,,,,,,911.3571987500036,None,/Users/graziano-isaac/Desktop/CANS/v2_Behavioral/data/sub-008_cans_4-2-23_2023_Apr_11_1119_mic_recorded/recording_000000040449_trials_36.default,0.0007978302019182593,None,space,6.848229089999222,912.208064475999,None,912.208064475999,None,,,,,,,,,sub-008,001,2023_Apr_11_1119,cans_4-2-23,2021.2.3,120.04411668156534,
train2017_coco_4866/000000040458.jpg,1,0,1,0,0,37,37,37,,,,,,,919.9905906289932,None,/Users/graziano-isaac/Desktop/CANS/v2_Behavioral/data/sub-008_cans_4-2-23_2023_Apr_11_1119_mic_recorded/recording_000000040458_trials_37.default,0.006916963291587308,None,space,10.150823119998677,920.8494908790017,None,920.8494908790017,None,,,,,,,,,sub-008,001,2023_Apr_11_1119,cans_4-2-23,2021.2.3,120.04411668156534,
train2017_coco_4866/000000040729.jpg,1,0,1,0,0,38,38,38,,,,,,,931.9411686989915,None,/Users/graziano-isaac/Desktop/CANS/v2_Behavioral/data/sub-008_cans_4-2-23_2023_Apr_11_1119_mic_recorded/recording_000000040729_trials_38.default,0.0018453902885084972,None,space,10.640194894003798,932.800113395002,None,932.800113395002,None,,,,,,,,,sub-008,001,2023_Apr_11_1119,cans_4-2-23,2021.2.3,120.04411668156534,
train2017_coco_4866/000000040886.jpg,1,0,1,0,0,39,39,39,,,,,,,944.3749411030003,None,/Users/graziano-isaac/Desktop/CANS/v2_Behavioral/data/sub-008_cans_4-2-23_2023_Apr_11_1119_mic_recorded/recording_000000040886_trials_39.default,0.007020334276603535,None,space,7.270955756001058,945.2333506779978,None,945.2333506779978,None,,,,,,,,,sub-008,001,2023_Apr_11_1119,cans_4-2-23,2021.2.3,120.04411668156534,
,1,0,1,0,,,,,,,,,,,,,,,,,,,,,,953.282854250996,None,space,2.0934506340126973,953.282854250996,None,,,sub-008,001,2023_Apr_11_1119,cans_4-2-23,2021.2.3,120.04411668156534,
train2017_coco_4866/000000040891.jpg,2,0,2,0,0,0,0,0,,,,,,,None,None,/Users/graziano-isaac/Desktop/CANS/v2_Behavioral/data/sub-008_cans_4-2-23_2023_Apr_11_1119_mic_recorded/recording_000000040891_trials_0.default,0.008185537692042999,None,space,6.8843048340058886,957.3079984289943,None,957.3079984289943,None,,,,,,,,,sub-008,001,2023_Apr_11_1119,cans_4-2-23,2021.2.3,120.04411668156534,
train2017_coco_4866/000000041212.jpg,2,0,2,0,0,1,1,1,,,,,,,965.1334390679986,None,/Users/graziano-isaac/Desktop/CANS/v2_Behavioral/data/sub-008_cans_4-2-23_2023_Apr_11_1119_mic_recorded/recording_000000041212_trials_1.default,0.0024742342939134687,None,space,5.424322390012094,965.9919788050029,None,965.9919788050029,None,,,,,,,,,sub-008,001,2023_Apr_11_1119,cans_4-2-23,2021.2.3,120.04411668156534,
train2017_coco_4866/000000041369.jpg,2,0,2,0,0,2,2,2,,,,,,,972.3410539659963,None,/Users/graziano-isaac/Desktop/CANS/v2_Behavioral/data/sub-008_cans_4-2-23_2023_Apr_11_1119_mic_recorded/recording_000000041369_trials_2.default,0.006739159216522239,None,space,8.304263205995085,973.1920615209965,None,973.1920615209965,None,,,,,,,,,sub-008,001,2023_Apr_11_1119,cans_4-2-23,2021.2.3,120.04411668156534,
train2017_coco_4866/000000041442.jpg,2,0,2,0,0,3,3,3,,,,,,,982.4413443569938,None,/Users/graziano-isaac/Desktop/CANS/v2_Behavioral/data/sub-008_cans_4-2-23_2023_Apr_11_1119_mic_recorded/recording_000000041442_trials_3.default,0.001287488208618015,None,space,14.500678707001498,983.2916458359978,None,983.2916458359978,None,,,,,,,,,sub-008,001,2023_Apr_11_1119,cans_4-2-23,2021.2.3,120.04411668156534,
train2017_coco_4866/000000041572.jpg,2,0,2,0,0,4,4,4,,,,,,,998.7413635569974,None,/Users/graziano-isaac/Desktop/CANS/v2_Behavioral/data/sub-008_cans_4-2-23_2023_Apr_11_1119_mic_recorded/recording_000000041572_trials_4.default,0.005745550195570104,None,space,7.817070797987981,999.5832244759949,None,999.5832244759949,None,,,,,,,,,sub-008,001,2023_Apr_11_1119,cans_4-2-23,2021.2.3,120.04411668156534,
train2017_coco_4866/000000041753.jpg,2,0,2,0,0,5,5,5,,,,,,,1008.3333848289913,None,/Users/graziano-isaac/Desktop/CANS/v2_Behavioral/data/sub-008_cans_4-2-23_2023_Apr_11_1119_mic_recorded/recording_000000041753_trials_5.default,0.00024380719696637243,None,space,7.776200128995697,1009.1921119530016,None,1009.1921119530016,None,,,,,,,,,sub-008,001,2023_Apr_11_1119,cans_4-2-23,2021.2.3,120.04411668156534,
train2017_coco_4866/000000041756.jpg,2,0,2,0,0,6,6,6,,,,,,,1017.9000412629975,None,/Users/graziano-isaac/Desktop/CANS/v2_Behavioral/data/sub-008_cans_4-2-23_2023_Apr_11_1119_mic_recorded/recording_000000041756_trials_6.default,0.006621885288041085,None,space,12.049781958994572,1018.7585409960011,None,1018.7585409960011,None,,,,,,,,,sub-008,001,2023_Apr_11_1119,cans_4-2-23,2021.2.3,120.04411668156534,
train2017_coco_4866/000000041838.jpg,2,0,2,0,0,7,7,7,,,,,,,1031.751187863003,None,/Users/graziano-isaac/Desktop/CANS/v2_Behavioral/data/sub-008_cans_4-2-23_2023_Apr_11_1119_mic_recorded/recording_000000041838_trials_7.default,0.004112744209123775,None,space,4.774552635004511,1032.5937543259934,None,1032.5937543259934,None,,,,,,,,,sub-008,001,2023_Apr_11_1119,cans_4-2-23,2021.2.3,120.04411668156534,
train2017_coco_4866/000000041854.jpg,2,0,2,0,0,8,8,8,,,,,,,1038.309507286991,None,/Users/graziano-isaac/Desktop/CANS/v2_Behavioral/data/sub-008_cans_4-2-23_2023_Apr_11_1119_mic_recorded/recording_000000041854_trials_8.default,0.0003565882070688531,None,space,5.545026098989183,1039.1592920219991,None,1039.1592920219991,None,,,,,,,,,sub-008,001,2023_Apr_11_1119,cans_4-2-23,2021.2.3,120.04411668156534,
train2017_coco_4866/000000042225.jpg,2,0,2,0,0,9,9,9,,,,,,,1045.6426705509948,None,/Users/graziano-isaac/Desktop/CANS/v2_Behavioral/data/sub-008_cans_4-2-23_2023_Apr_11_1119_mic_recorded/recording_000000042225_trials_9.default,0.0008913792116800323,None,space,7.707794483998441,1046.492524760004,None,1046.492524760004,None,,,,,,,,,sub-008,001,2023_Apr_11_1119,cans_4-2-23,2021.2.3,120.04411668156534,
train2017_coco_4866/000000042278.jpg,2,0,2,0,0,10,10,10,,,,,,,1055.1336856749986,None,/Users/graziano-isaac/Desktop/CANS/v2_Behavioral/data/sub-008_cans_4-2-23_2023_Apr_11_1119_mic_recorded/recording_000000042278_trials_10.default,0.004195728208287619,None,space,6.335335932002636,1055.9769776689936,None,1055.9769776689936,None,,,,,,,,,sub-008,001,2023_Apr_11_1119,cans_4-2-23,2021.2.3,120.04411668156534,
train2017_coco_4866/000000042433.jpg,2,0,2,0,0,11,11,11,,,,,,,1063.2526889919973,None,/Users/graziano-isaac/Desktop/CANS/v2_Behavioral/data/sub-008_cans_4-2-23_2023_Apr_11_1119_mic_recorded/recording_000000042433_trials_11.default,0.0073589182866271585,None,space,19.88289928600716,1064.1094247639994,None,1064.1094247639994,None,,,,,,,,,sub-008,001,2023_Apr_11_1119,cans_4-2-23,2021.2.3,120.04411668156534,
train2017_coco_4866/000000042472.jpg,2,0,2,0,0,12,12,12,,,,,,,1084.9429967379983,None,/Users/graziano-isaac/Desktop/CANS/v2_Behavioral/data/sub-008_cans_4-2-23_2023_Apr_11_1119_mic_recorded/recording_000000042472_trials_12.default,0.004547896300209686,None,space,6.9816758039960405,1085.794645500995,None,1085.794645500995,None,,,,,,,,,sub-008,001,2023_Apr_11_1119,cans_4-2-23,2021.2.3,120.04411668156534,
train2017_coco_4866/000000042634.jpg,2,0,2,0,0,13,13,13,,,,,,,1093.7111451200035,None,/Users/graziano-isaac/Desktop/CANS/v2_Behavioral/data/sub-008_cans_4-2-23_2023_Apr_11_1119_mic_recorded/recording_000000042634_trials_13.default,0.0022480852057924494,None,space,10.632502279011533,1094.5678108870052,None,1094.5678108870052,None,,,,,,,,,sub-008,001,2023_Apr_11_1119,cans_4-2-23,2021.2.3,120.04411668156534,
train2017_coco_4866/000000042756.jpg,2,0,2,0,0,14,14,14,,,,,,,1106.142985821003,None,/Users/graziano-isaac/Desktop/CANS/v2_Behavioral/data/sub-008_cans_4-2-23_2023_Apr_11_1119_mic_recorded/recording_000000042756_trials_14.default,0.0004094892065040767,None,space,4.559696180003812,1106.9926336170029,None,1106.9926336170029,None,,,,,,,,,sub-008,001,2023_Apr_11_1119,cans_4-2-23,2021.2.3,120.04411668156534,
train2017_coco_4866/000000042944.jpg,2,0,2,0,0,15,15,15,,,,,,,1112.4762900289934,None,/Users/graziano-isaac/Desktop/CANS/v2_Behavioral/data/sub-008_cans_4-2-23_2023_Apr_11_1119_mic_recorded/recording_000000042944_trials_15.default,0.0023247702047228813,None,space,6.705991067996365,1113.3343500329938,None,1113.3343500329938,None,,,,,,,,,sub-008,001,2023_Apr_11_1119,cans_4-2-23,2021.2.3,120.04411668156534,
train2017_coco_4866/000000042953.jpg,2,0,2,0,0,16,16,16,,,,,,,1120.9778658580035,None,/Users/graziano-isaac/Desktop/CANS/v2_Behavioral/data/sub-008_cans_4-2-23_2023_Apr_11_1119_mic_recorded/recording_000000042953_trials_16.default,0.0020024082041345537,None,space,10.36545277600817,1121.8348649809923,None,1121.8348649809923,None,,,,,,,,,sub-008,001,2023_Apr_11_1119,cans_4-2-23,2021.2.3,120.04411668156534,
train2017_coco_4866/000000043163.jpg,2,0,2,0,0,17,17,17,,,,,,,1133.1429225559987,None,/Users/graziano-isaac/Desktop/CANS/v2_Behavioral/data/sub-008_cans_4-2-23_2023_Apr_11_1119_mic_recorded/recording_000000043163_trials_17.default,0.004924317196127959,None,space,9.910065635005594,1133.9862716829957,None,1133.9862716829957,None,,,,,,,,,sub-008,001,2023_Apr_11_1119,cans_4-2-23,2021.2.3,120.04411668156534,
train2017_coco_4866/000000043193.jpg,2,0,2,0,0,18,18,18,,,,,,,1144.8347024950053,None,/Users/graziano-isaac/Desktop/CANS/v2_Behavioral/data/sub-008_cans_4-2-23_2023_Apr_11_1119_mic_recorded/recording_000000043193_trials_18.default,0.008120542304823175,None,space,18.915142954996554,1145.6931981550006,None,1145.6931981550006,None,,,,,,,,,sub-008,001,2023_Apr_11_1119,cans_4-2-23,2021.2.3,120.04411668156534,
train2017_coco_4866/000000043431.jpg,2,0,2,0,0,19,19,19,,,,,,,1165.5606387709995,None,/Users/graziano-isaac/Desktop/CANS/v2_Behavioral/data/sub-008_cans_4-2-23_2023_Apr_11_1119_mic_recorded/recording_000000043431_trials_19.default,0.001316009191214107,None,space,8.774304835998919,1166.4100277760008,None,1166.4100277760008,None,,,,,,,,,sub-008,001,2023_Apr_11_1119,cans_4-2-23,2021.2.3,120.04411668156534,
train2017_coco_4866/000000043657.jpg,2,0,2,0,0,20,20,20,,,,,,,1176.118225785991,None,/Users/graziano-isaac/Desktop/CANS/v2_Behavioral/data/sub-008_cans_4-2-23_2023_Apr_11_1119_mic_recorded/recording_000000043657_trials_20.default,0.003663342198706232,None,space,7.133933164004702,1176.970400295002,None,1176.970400295002,None,,,,,,,,,sub-008,001,2023_Apr_11_1119,cans_4-2-23,2021.2.3,120.04411668156534,
train2017_coco_4866/000000043720.jpg,2,0,2,0,0,21,21,21,,,,,,,1185.043382553995,None,/Users/graziano-isaac/Desktop/CANS/v2_Behavioral/data/sub-008_cans_4-2-23_2023_Apr_11_1119_mic_recorded/recording_000000043720_trials_21.default,0.0018891921936301515,None,space,9.44214894498873,1185.9021860280045,None,1185.9021860280045,None,,,,,,,,,sub-008,001,2023_Apr_11_1119,cans_4-2-23,2021.2.3,120.04411668156534,
train2017_coco_4866/000000043782.jpg,2,0,2,0,0,22,22,22,,,,,,,1196.2770146440016,None,/Users/graziano-isaac/Desktop/CANS/v2_Behavioral/data/sub-008_cans_4-2-23_2023_Apr_11_1119_mic_recorded/recording_000000043782_trials_22.default,0.0015291512245312333,None,space,16.232753142001457,1197.1355953269958,None,1197.1355953269958,None,,,,,,,,,sub-008,001,2023_Apr_11_1119,cans_4-2-23,2021.2.3,120.04411668156534,
train2017_coco_4866/000000043850.jpg,2,0,2,0,0,23,23,23,,,,,,,1214.3190847289952,None,/Users/graziano-isaac/Desktop/CANS/v2_Behavioral/data/sub-008_cans_4-2-23_2023_Apr_11_1119_mic_recorded/recording_000000043850_trials_23.default,0.0038085012056399137,None,space,6.16642361599952,1215.1619034320029,None,1215.1619034320029,None,,,,,,,,,sub-008,001,2023_Apr_11_1119,cans_4-2-23,2021.2.3,120.04411668156534,
train2017_coco_4866/000000043856.jpg,2,0,2,0,0,24,24,24,,,,,,,1222.2627473729954,None,/Users/graziano-isaac/Desktop/CANS/v2_Behavioral/data/sub-008_cans_4-2-23_2023_Apr_11_1119_mic_recorded/recording_000000043856_trials_24.default,0.0033330462174490094,None,space,5.17732529299974,1223.1110111229937,None,1223.1110111229937,None,,,,,,,,,sub-008,001,2023_Apr_11_1119,cans_4-2-23,2021.2.3,120.04411668156534,
train2017_coco_4866/000000043971.jpg,2,0,2,0,0,25,25,25,,,,,,,1229.2198213469965,None,/Users/graziano-isaac/Desktop/CANS/v2_Behavioral/data/sub-008_cans_4-2-23_2023_Apr_11_1119_mic_recorded/recording_000000043971_trials_25.default,0.002721747281611897,None,space,13.434162072007894,1230.086199657002,None,1230.086199657002,None,,,,,,,,,sub-008,001,2023_Apr_11_1119,cans_4-2-23,2021.2.3,120.04411668156534,
train2017_coco_4866/000000044029.jpg,2,0,2,0,0,26,26,26,,,,,,,1244.454564211992,None,/Users/graziano-isaac/Desktop/CANS/v2_Behavioral/data/sub-008_cans_4-2-23_2023_Apr_11_1119_mic_recorded/recording_000000044029_trials_26.default,0.00134423520648852,None,space,7.6407038279867265,1245.3116375120007,None,1245.3116375120007,None,,,,,,,,,sub-008,001,2023_Apr_11_1119,cans_4-2-23,2021.2.3,120.04411668156534,
train2017_coco_4866/000000044057.jpg,2,0,2,0,0,27,27,27,,,,,,,1253.8948673179984,None,/Users/graziano-isaac/Desktop/CANS/v2_Behavioral/data/sub-008_cans_4-2-23_2023_Apr_11_1119_mic_recorded/recording_000000044057_trials_27.default,0.0025772002118173987,None,space,10.912047128993436,1254.744292012998,None,1254.744292012998,None,,,,,,,,,sub-008,001,2023_Apr_11_1119,cans_4-2-23,2021.2.3,120.04411668156534,
train2017_coco_4866/000000044127.jpg,2,0,2,0,0,28,28,28,,,,,,,1266.6025900940003,None,/Users/graziano-isaac/Desktop/CANS/v2_Behavioral/data/sub-008_cans_4-2-23_2023_Apr_11_1119_mic_recorded/recording_000000044127_trials_28.default,0.00029571021150331944,None,space,5.890963152007316,1267.4533953869977,None,1267.4533953869977,None,,,,,,,,,sub-008,001,2023_Apr_11_1119,cans_4-2-23,2021.2.3,120.04411668156534,
train2017_coco_4866/000000044129.jpg,2,0,2,0,0,29,29,29,,,,,,,1274.278387141996,None,/Users/graziano-isaac/Desktop/CANS/v2_Behavioral/data/sub-008_cans_4-2-23_2023_Apr_11_1119_mic_recorded/recording_000000044129_trials_29.default,0.002771350205875933,None,space,5.448408319003647,1275.1279447800043,None,1275.1279447800043,None,,,,,,,,,sub-008,001,2023_Apr_11_1119,cans_4-2-23,2021.2.3,120.04411668156534,
train2017_coco_4866/000000044644.jpg,2,0,2,0,0,30,30,30,,,,,,,1281.5113099500013,None,/Users/graziano-isaac/Desktop/CANS/v2_Behavioral/data/sub-008_cans_4-2-23_2023_Apr_11_1119_mic_recorded/recording_000000044644_trials_30.default,0.00011984021693933755,None,space,12.7504487039987,1282.3699137240037,None,1282.3699137240037,None,,,,,,,,,sub-008,001,2023_Apr_11_1119,cans_4-2-23,2021.2.3,120.04411668156534,
train2017_coco_4866/000000044671.jpg,2,0,2,0,0,31,31,31,,,,,,,1296.054844983999,None,/Users/graziano-isaac/Desktop/CANS/v2_Behavioral/data/sub-008_cans_4-2-23_2023_Apr_11_1119_mic_recorded/recording_000000044671_trials_31.default,0.007580864286865108,None,space,6.184314486992662,1296.9200407479948,None,1296.9200407479948,None,,,,,,,,,sub-008,001,2023_Apr_11_1119,cans_4-2-23,2021.2.3,120.04411668156534,
train2017_coco_4866/000000044781.jpg,2,0,2,0,0,32,32,32,,,,,,,1304.0369393619912,None,/Users/graziano-isaac/Desktop/CANS/v2_Behavioral/data/sub-008_cans_4-2-23_2023_Apr_11_1119_mic_recorded/recording_000000044781_trials_32.default,0.004171334192506038,None,space,6.1838662899972405,1304.8884708580008,None,1304.8884708580008,None,,,,,,,,,sub-008,001,2023_Apr_11_1119,cans_4-2-23,2021.2.3,120.04411668156534,
train2017_coco_4866/000000044800.jpg,2,0,2,0,0,33,33,33,,,,,,,1312.0118912640028,None,/Users/graziano-isaac/Desktop/CANS/v2_Behavioral/data/sub-008_cans_4-2-23_2023_Apr_11_1119_mic_recorded/recording_000000044800_trials_33.default,0.005350683204596862,None,space,9.82619383301062,1312.8621501720045,None,1312.8621501720045,None,,,,,,,,,sub-008,001,2023_Apr_11_1119,cans_4-2-23,2021.2.3,120.04411668156534,
train2017_coco_4866/000000044960.jpg,2,0,2,0,0,34,34,34,,,,,,,1323.629260104004,None,/Users/graziano-isaac/Desktop/CANS/v2_Behavioral/data/sub-008_cans_4-2-23_2023_Apr_11_1119_mic_recorded/recording_000000044960_trials_34.default,0.007645569305168465,None,space,11.777686190005625,1324.4866776400013,None,1324.4866776400013,None,,,,,,,,,sub-008,001,2023_Apr_11_1119,cans_4-2-23,2021.2.3,120.04411668156534,
train2017_coco_4866/000000045016.jpg,2,0,2,0,0,35,35,35,,,,,,,1337.212768063997,None,/Users/graziano-isaac/Desktop/CANS/v2_Behavioral/data/sub-008_cans_4-2-23_2023_Apr_11_1119_mic_recorded/recording_000000045016_trials_35.default,0.0012929531949339435,None,space,9.762131458002841,1338.0622333639913,None,1338.0622333639913,None,,,,,,,,,sub-008,001,2023_Apr_11_1119,cans_4-2-23,2021.2.3,120.04411668156534,
train2017_coco_4866/000000045138.jpg,2,0,2,0,0,36,36,36,,,,,,,1348.7632851149974,None,/Users/graziano-isaac/Desktop/CANS/v2_Behavioral/data/sub-008_cans_4-2-23_2023_Apr_11_1119_mic_recorded/recording_000000045138_trials_36.default,0.0006581901980098337,None,space,10.747510289002093,1349.620848666993,None,1349.620848666993,None,,,,,,,,,sub-008,001,2023_Apr_11_1119,cans_4-2-23,2021.2.3,120.04411668156534,
train2017_coco_4866/000000045306.jpg,2,0,2,0,0,37,37,37,,,,,,,1361.312232611992,None,/Users/graziano-isaac/Desktop/CANS/v2_Behavioral/data/sub-008_cans_4-2-23_2023_Apr_11_1119_mic_recorded/recording_000000045306_trials_37.default,0.0004699532000813633,None,space,5.325454507008544,1362.1629074179946,None,1362.1629074179946,None,,,,,,,,,sub-008,001,2023_Apr_11_1119,cans_4-2-23,2021.2.3,120.04411668156534,
train2017_coco_4866/000000046155.jpg,2,0,2,0,0,38,38,38,,,,,,,1368.4212197189918,None,/Users/graziano-isaac/Desktop/CANS/v2_Behavioral/data/sub-008_cans_4-2-23_2023_Apr_11_1119_mic_recorded/recording_000000046155_trials_38.default,0.0006573762075277045,None,space,4.745782658996177,1369.2705864349991,None,1369.2705864349991,None,,,,,,,,,sub-008,001,2023_Apr_11_1119,cans_4-2-23,2021.2.3,120.04411668156534,
train2017_coco_4866/000000046207.jpg,2,0,2,0,0,39,39,39,,,,,,,1374.9538207369915,None,/Users/graziano-isaac/Desktop/CANS/v2_Behavioral/data/sub-008_cans_4-2-23_2023_Apr_11_1119_mic_recorded/recording_000000046207_trials_39.default,0.007187715207692236,None,space,5.924779117005528,1375.795593888004,None,1375.795593888004,None,,,,,,,,,sub-008,001,2023_Apr_11_1119,cans_4-2-23,2021.2.3,120.04411668156534,
,2,0,2,0,,,,,,,,,,,,,,,,,,,,,,1382.4963135040016,None,space,2.496117709990358,1382.4963135040016,None,,,sub-008,001,2023_Apr_11_1119,cans_4-2-23,2021.2.3,120.04411668156534,
train2017_coco_4866/000000046331.jpg,3,0,3,0,0,0,0,0,,,,,,,None,None,/Users/graziano-isaac/Desktop/CANS/v2_Behavioral/data/sub-008_cans_4-2-23_2023_Apr_11_1119_mic_recorded/recording_000000046331_trials_0.default,0.0020586308964993805,None,space,7.447707608007477,1387.912655623004,None,1387.912655623004,None,,,,,,,,,sub-008,001,2023_Apr_11_1119,cans_4-2-23,2021.2.3,120.04411668156534,
train2017_coco_4866/000000046580.jpg,3,0,3,0,0,1,1,1,,,,,,,1396.2959762779938,None,/Users/graziano-isaac/Desktop/CANS/v2_Behavioral/data/sub-008_cans_4-2-23_2023_Apr_11_1119_mic_recorded/recording_000000046580_trials_1.default,0.0030647601961391047,None,space,4.38162798700796,1397.1547266419948,None,1397.1547266419948,None,,,,,,,,,sub-008,001,2023_Apr_11_1119,cans_4-2-23,2021.2.3,120.04411668156534,
train2017_coco_4866/000000046990.jpg,3,0,3,0,0,2,2,2,,,,,,,1402.470971938994,None,/Users/graziano-isaac/Desktop/CANS/v2_Behavioral/data/sub-008_cans_4-2-23_2023_Apr_11_1119_mic_recorded/recording_000000046990_trials_2.default,0.002779627204290591,None,space,5.470380348007893,1403.3299852659984,None,1403.3299852659984,None,,,,,,,,,sub-008,001,2023_Apr_11_1119,cans_4-2-23,2021.2.3,120.04411668156534,
train2017_coco_4866/000000047425.jpg,3,0,3,0,0,3,3,3,,,,,,,1409.738072601991,None,/Users/graziano-isaac/Desktop/CANS/v2_Behavioral/data/sub-008_cans_4-2-23_2023_Apr_11_1119_mic_recorded/recording_000000047425_trials_3.default,0.0022074422013247386,None,space,6.908479514007922,1410.595887079995,None,1410.595887079995,None,,,,,,,,,sub-008,001,2023_Apr_11_1119,cans_4-2-23,2021.2.3,120.04411668156534,
train2017_coco_4866/000000047621.jpg,3,0,3,0,0,4,4,4,,,,,,,1418.431265947991,None,/Users/graziano-isaac/Desktop/CANS/v2_Behavioral/data/sub-008_cans_4-2-23_2023_Apr_11_1119_mic_recorded/recording_000000047621_trials_4.default,0.005902293283725157,None,space,5.951266586998827,1419.2970887139963,None,1419.2970887139963,None,,,,,,,,,sub-008,001,2023_Apr_11_1119,cans_4-2-23,2021.2.3,120.04411668156534,
train2017_coco_4866/000000047652.jpg,3,0,3,0,0,5,5,5,,,,,,,1426.179925435994,None,/Users/graziano-isaac/Desktop/CANS/v2_Behavioral/data/sub-008_cans_4-2-23_2023_Apr_11_1119_mic_recorded/recording_000000047652_trials_5.default,0.007904538288130425,None,space,3.962299641003483,1427.038059258004,None,1427.038059258004,None,,,,,,,,,sub-008,001,2023_Apr_11_1119,cans_4-2-23,2021.2.3,120.04411668156534,
train2017_coco_4866/000000047667.jpg,3,0,3,0,0,6,6,6,,,,,,,1431.9384357139934,None,/Users/graziano-isaac/Desktop/CANS/v2_Behavioral/data/sub-008_cans_4-2-23_2023_Apr_11_1119_mic_recorded/recording_000000047667_trials_6.default,0.002632406205520965,None,space,12.860219903013785,1432.7881370599935,None,1432.7881370599935,None,,,,,,,,,sub-008,001,2023_Apr_11_1119,cans_4-2-23,2021.2.3,120.04411668156534,
train2017_coco_4866/000000047735.jpg,3,0,3,0,0,7,7,7,,,,,,,1446.5888571190007,None,/Users/graziano-isaac/Desktop/CANS/v2_Behavioral/data/sub-008_cans_4-2-23_2023_Apr_11_1119_mic_recorded/recording_000000047735_trials_7.default,0.00048463621351402253,None,space,11.41776845700224,1447.4465850720007,None,1447.4465850720007,None,,,,,,,,,sub-008,001,2023_Apr_11_1119,cans_4-2-23,2021.2.3,120.04411668156534,
train2017_coco_4866/000000048189.jpg,3,0,3,0,0,8,8,8,,,,,,,1459.8051130499953,None,/Users/graziano-isaac/Desktop/CANS/v2_Behavioral/data/sub-008_cans_4-2-23_2023_Apr_11_1119_mic_recorded/recording_000000048189_trials_8.default,0.00012988020898774266,None,space,12.105266461003339,1460.6551111419976,None,1460.6551111419976,None,,,,,,,,,sub-008,001,2023_Apr_11_1119,cans_4-2-23,2021.2.3,120.04411668156534,
train2017_coco_4866/000000048257.jpg,3,0,3,0,0,9,9,9,,,,,,,1473.705232384993,None,/Users/graziano-isaac/Desktop/CANS/v2_Behavioral/data/sub-008_cans_4-2-23_2023_Apr_11_1119_mic_recorded/recording_000000048257_trials_9.default,0.005770158197265118,None,space,9.14161251000769,1474.546766917003,None,1474.546766917003,None,,,,,,,,,sub-008,001,2023_Apr_11_1119,cans_4-2-23,2021.2.3,120.04411668156534,
train2017_coco_4866/000000048334.jpg,3,0,3,0,0,10,10,10,,,,,,,1484.6218355430028,None,/Users/graziano-isaac/Desktop/CANS/v2_Behavioral/data/sub-008_cans_4-2-23_2023_Apr_11_1119_mic_recorded/recording_000000048334_trials_10.default,0.007708666293183342,None,space,7.191962237004191,1485.4724005280004,None,1485.4724005280004,None,,,,,,,,,sub-008,001,2023_Apr_11_1119,cans_4-2-23,2021.2.3,120.04411668156534,
train2017_coco_4866/000000048340.jpg,3,0,3,0,0,11,11,11,,,,,,,1493.5967533209914,None,/Users/graziano-isaac/Desktop/CANS/v2_Behavioral/data/sub-008_cans_4-2-23_2023_Apr_11_1119_mic_recorded/recording_000000048340_trials_11.default,0.006845588286523707,None,space,10.376767280002241,1494.455592793005,None,1494.455592793005,None,,,,,,,,,sub-008,001,2023_Apr_11_1119,cans_4-2-23,2021.2.3,120.04411668156534,
train2017_coco_4866/000000048493.jpg,3,0,3,0,0,12,12,12,,,,,,,1505.7739033399994,None,/Users/graziano-isaac/Desktop/CANS/v2_Behavioral/data/sub-008_cans_4-2-23_2023_Apr_11_1119_mic_recorded/recording_000000048493_trials_12.default,0.00048015509673859924,None,space,5.210175199987134,1506.6221869250003,None,1506.6221869250003,None,,,,,,,,,sub-008,001,2023_Apr_11_1119,cans_4-2-23,2021.2.3,120.04411668156534,
train2017_coco_4866/000000048548.jpg,3,0,3,0,0,13,13,13,,,,,,,1512.756540065995,None,/Users/graziano-isaac/Desktop/CANS/v2_Behavioral/data/sub-008_cans_4-2-23_2023_Apr_11_1119_mic_recorded/recording_000000048548_trials_13.default,0.005918200287851505,None,space,5.226248712002416,1513.6221241729945,None,1513.6221241729945,None,,,,,,,,,sub-008,001,2023_Apr_11_1119,cans_4-2-23,2021.2.3,120.04411668156534,
train2017_coco_4866/000000048554.jpg,3,0,3,0,0,14,14,14,,,,,,,1519.7723325389961,None,/Users/graziano-isaac/Desktop/CANS/v2_Behavioral/data/sub-008_cans_4-2-23_2023_Apr_11_1119_mic_recorded/recording_000000048554_trials_14.default,0.004472348213312216,None,space,9.320374426999479,1520.6320132399997,None,1520.6320132399997,None,,,,,,,,,sub-008,001,2023_Apr_11_1119,cans_4-2-23,2021.2.3,120.04411668156534,
train2017_coco_4866/000000048558.jpg,3,0,3,0,0,15,15,15,,,,,,,1530.8894174129964,None,/Users/graziano-isaac/Desktop/CANS/v2_Behavioral/data/sub-008_cans_4-2-23_2023_Apr_11_1119_mic_recorded/recording_000000048558_trials_15.default,0.0014888721925672144,None,space,26.812311203000718,1531.748072286995,None,1531.748072286995,None,,,,,,,,,sub-008,001,2023_Apr_11_1119,cans_4-2-23,2021.2.3,120.04411668156534,
train2017_coco_4866/000000048632.jpg,3,0,3,0,0,16,16,16,,,,,,,1559.514101887995,None,/Users/graziano-isaac/Desktop/CANS/v2_Behavioral/data/sub-008_cans_4-2-23_2023_Apr_11_1119_mic_recorded/recording_000000048632_trials_16.default,0.00027021618734579533,None,space,12.139382381996256,1560.373026442001,None,1560.373026442001,None,,,,,,,,,sub-008,001,2023_Apr_11_1119,cans_4-2-23,2021.2.3,120.04411668156534,
train2017_coco_4866/000000048653.jpg,3,0,3,0,0,17,17,17,,,,,,,1573.4569577779912,None,/Users/graziano-isaac/Desktop/CANS/v2_Behavioral/data/sub-008_cans_4-2-23_2023_Apr_11_1119_mic_recorded/recording_000000048653_trials_17.default,0.0011669701925711706,None,space,6.349734597999486,1574.306652758998,None,1574.306652758998,None,,,,,,,,,sub-008,001,2023_Apr_11_1119,cans_4-2-23,2021.2.3,120.04411668156534,
train2017_coco_4866/000000048670.jpg,3,0,3,0,0,18,18,18,,,,,,,1581.589886154994,None,/Users/graziano-isaac/Desktop/CANS/v2_Behavioral/data/sub-008_cans_4-2-23_2023_Apr_11_1119_mic_recorded/recording_000000048670_trials_18.default,0.0070611353003187105,None,space,5.768311988998903,1582.4480680790002,None,1582.4480680790002,None,,,,,,,,,sub-008,001,2023_Apr_11_1119,cans_4-2-23,2021.2.3,120.04411668156534,
train2017_coco_4866/000000048747.jpg,3,0,3,0,0,19,19,19,,,,,,,1589.1477845960035,None,/Users/graziano-isaac/Desktop/CANS/v2_Behavioral/data/sub-008_cans_4-2-23_2023_Apr_11_1119_mic_recorded/recording_000000048747_trials_19.default,0.0005252522096270695,None,space,5.177249439992011,1590.0071385949996,None,1590.0071385949996,None,,,,,,,,,sub-008,001,2023_Apr_11_1119,cans_4-2-23,2021.2.3,120.04411668156534,
train2017_coco_4866/000000049275.jpg,3,0,3,0,0,20,20,20,,,,,,,1596.1239512750035,None,/Users/graziano-isaac/Desktop/CANS/v2_Behavioral/data/sub-008_cans_4-2-23_2023_Apr_11_1119_mic_recorded/recording_000000049275_trials_20.default,6.462920282501727e-05,None,space,7.963025064003887,1596.9813713019976,None,1596.9813713019976,None,,,,,,,,,sub-008,001,2023_Apr_11_1119,cans_4-2-23,2021.2.3,120.04411668156534,
train2017_coco_4866/000000049371.jpg,3,0,3,0,0,21,21,21,,,,,,,1605.8834397799947,None,/Users/graziano-isaac/Desktop/CANS/v2_Behavioral/data/sub-008_cans_4-2-23_2023_Apr_11_1119_mic_recorded/recording_000000049371_trials_21.default,0.0002182062016800046,None,space,12.115894895992824,1606.7404936179955,None,1606.7404936179955,None,,,,,,,,,sub-008,001,2023_Apr_11_1119,cans_4-2-23,2021.2.3,120.04411668156534,
train2017_coco_4866/000000049470.jpg,3,0,3,0,0,22,22,22,,,,,,,1619.7983476109948,None,/Users/graziano-isaac/Desktop/CANS/v2_Behavioral/data/sub-008_cans_4-2-23_2023_Apr_11_1119_mic_recorded/recording_000000049470_trials_22.default,0.0008720471960259601,None,space,6.215976221006713,1620.6484194240038,None,1620.6484194240038,None,,,,,,,,,sub-008,001,2023_Apr_11_1119,cans_4-2-23,2021.2.3,120.04411668156534,
train2017_coco_4866/000000049602.jpg,3,0,3,0,0,23,23,23,,,,,,,1627.7985223709984,None,/Users/graziano-isaac/Desktop/CANS/v2_Behavioral/data/sub-008_cans_4-2-23_2023_Apr_11_1119_mic_recorded/recording_000000049602_trials_23.default,0.007826007291441783,None,space,7.90323656599503,1628.6491513719957,None,1628.6491513719957,None,,,,,,,,,sub-008,001,2023_Apr_11_1119,cans_4-2-23,2021.2.3,120.04411668156534,
train2017_coco_4866/000000049648.jpg,3,0,3,0,0,24,24,24,,,,,,,1637.4905720739916,None,/Users/graziano-isaac/Desktop/CANS/v2_Behavioral/data/sub-008_cans_4-2-23_2023_Apr_11_1119_mic_recorded/recording_000000049648_trials_24.default,0.0016074801969807595,None,space,5.659691050997935,1638.3486940019939,None,1638.3486940019939,None,,,,,,,,,sub-008,001,2023_Apr_11_1119,cans_4-2-23,2021.2.3,120.04411668156534,
train2017_coco_4866/000000050159.jpg,3,0,3,0,0,25,25,25,,,,,,,1644.9406925759977,None,/Users/graziano-isaac/Desktop/CANS/v2_Behavioral/data/sub-008_cans_4-2-23_2023_Apr_11_1119_mic_recorded/recording_000000050159_trials_25.default,0.0031421122112078592,None,space,6.00156100600725,1645.7988307729975,None,1645.7988307729975,None,,,,,,,,,sub-008,001,2023_Apr_11_1119,cans_4-2-23,2021.2.3,120.04411668156534,
train2017_coco_4866/000000050274.jpg,3,0,3,0,0,26,26,26,,,,,,,1652.740806308997,None,/Users/graziano-isaac/Desktop/CANS/v2_Behavioral/data/sub-008_cans_4-2-23_2023_Apr_11_1119_mic_recorded/recording_000000050274_trials_26.default,0.003177859209245071,None,space,11.201483105993248,1653.5989135779964,None,1653.5989135779964,None,,,,,,,,,sub-008,001,2023_Apr_11_1119,cans_4-2-23,2021.2.3,120.04411668156534,
train2017_coco_4866/000000050410.jpg,3,0,3,0,0,27,27,27,,,,,,,1665.7491515010042,None,/Users/graziano-isaac/Desktop/CANS/v2_Behavioral/data/sub-008_cans_4-2-23_2023_Apr_11_1119_mic_recorded/recording_000000050410_trials_27.default,0.001268365202122368,None,space,7.817234325004392,1666.5991587570024,None,1666.5991587570024,None,,,,,,,,,sub-008,001,2023_Apr_11_1119,cans_4-2-23,2021.2.3,120.04411668156534,
train2017_coco_4866/000000050464.jpg,3,0,3,0,0,28,28,28,,,,,,,1675.3488785139925,None,/Users/graziano-isaac/Desktop/CANS/v2_Behavioral/data/sub-008_cans_4-2-23_2023_Apr_11_1119_mic_recorded/recording_000000050464_trials_28.default,0.0009373812063131481,None,space,4.632964670003275,1676.207442326995,None,1676.207442326995,None,,,,,,,,,sub-008,001,2023_Apr_11_1119,cans_4-2-23,2021.2.3,120.04411668156534,
train2017_coco_4866/000000050672.jpg,3,0,3,0,0,29,29,29,,,,,,,1681.7652575469983,None,/Users/graziano-isaac/Desktop/CANS/v2_Behavioral/data/sub-008_cans_4-2-23_2023_Apr_11_1119_mic_recorded/recording_000000050672_trials_29.default,0.004848878277698532,None,space,8.519864931004122,1682.6245491029986,None,1682.6245491029986,None,,,,,,,,,sub-008,001,2023_Apr_11_1119,cans_4-2-23,2021.2.3,120.04411668156534,
train2017_coco_4866/000000050756.jpg,3,0,3,0,0,30,30,30,,,,,,,1692.0830951370008,None,/Users/graziano-isaac/Desktop/CANS/v2_Behavioral/data/sub-008_cans_4-2-23_2023_Apr_11_1119_mic_recorded/recording_000000050756_trials_30.default,0.0006611552089452744,None,space,4.746916360993055,1692.9414796979981,None,1692.9414796979981,None,,,,,,,,,sub-008,001,2023_Apr_11_1119,cans_4-2-23,2021.2.3,120.04411668156534,
train2017_coco_4866/000000051045.jpg,3,0,3,0,0,31,31,31,,,,,,,1698.6161243910028,None,/Users/graziano-isaac/Desktop/CANS/v2_Behavioral/data/sub-008_cans_4-2-23_2023_Apr_11_1119_mic_recorded/recording_000000051045_trials_31.default,0.0003491362149361521,None,space,7.43750630300201,1699.4828830960032,None,1699.4828830960032,None,,,,,,,,,sub-008,001,2023_Apr_11_1119,cans_4-2-23,2021.2.3,120.04411668156534,
train2017_coco_4866/000000051372.jpg,3,0,3,0,0,32,32,32,,,,,,,1707.857948681005,None,/Users/graziano-isaac/Desktop/CANS/v2_Behavioral/data/sub-008_cans_4-2-23_2023_Apr_11_1119_mic_recorded/recording_000000051372_trials_32.default,0.003616085203248076,None,space,3.7407389779982623,1708.707664550995,None,1708.707664550995,None,,,,,,,,,sub-008,001,2023_Apr_11_1119,cans_4-2-23,2021.2.3,120.04411668156534,
train2017_coco_4866/000000052096.jpg,3,0,3,0,0,33,33,33,,,,,,,1713.3832863959979,None,/Users/graziano-isaac/Desktop/CANS/v2_Behavioral/data/sub-008_cans_4-2-23_2023_Apr_11_1119_mic_recorded/recording_000000052096_trials_33.default,0.0038371022092178464,None,space,3.6698040219926042,1714.2346039379918,None,1714.2346039379918,None,,,,,,,,,sub-008,001,2023_Apr_11_1119,cans_4-2-23,2021.2.3,120.04411668156534,
train2017_coco_4866/000000052248.jpg,3,0,3,0,0,34,34,34,,,,,,,1718.8325779150036,None,/Users/graziano-isaac/Desktop/CANS/v2_Behavioral/data/sub-008_cans_4-2-23_2023_Apr_11_1119_mic_recorded/recording_000000052248_trials_34.default,0.008118114303215407,None,space,7.90851096699771,1719.691882248997,None,1719.691882248997,None,,,,,,,,,sub-008,001,2023_Apr_11_1119,cans_4-2-23,2021.2.3,120.04411668156534,
train2017_coco_4866/000000052314.jpg,3,0,3,0,0,35,35,35,,,,,,,1728.5333312349976,None,/Users/graziano-isaac/Desktop/CANS/v2_Behavioral/data/sub-008_cans_4-2-23_2023_Apr_11_1119_mic_recorded/recording_000000052314_trials_35.default,0.004845487215789035,None,space,6.544672623000224,1729.3837428330007,None,1729.3837428330007,None,,,,,,,,,sub-008,001,2023_Apr_11_1119,cans_4-2-23,2021.2.3,120.04411668156534,
train2017_coco_4866/000000052562.jpg,3,0,3,0,0,36,36,36,,,,,,,1736.8670340679964,None,/Users/graziano-isaac/Desktop/CANS/v2_Behavioral/data/sub-008_cans_4-2-23_2023_Apr_11_1119_mic_recorded/recording_000000052562_trials_36.default,0.005163125213584863,None,space,6.460267721005948,1737.7161520259979,None,1737.7161520259979,None,,,,,,,,,sub-008,001,2023_Apr_11_1119,cans_4-2-23,2021.2.3,120.04411668156534,
train2017_coco_4866/000000052606.jpg,3,0,3,0,0,37,37,37,,,,,,,1745.1163201210002,None,/Users/graziano-isaac/Desktop/CANS/v2_Behavioral/data/sub-008_cans_4-2-23_2023_Apr_11_1119_mic_recorded/recording_000000052606_trials_37.default,0.00036089521017856896,None,space,5.577869932996691,1745.9745318060013,None,1745.9745318060013,None,,,,,,,,,sub-008,001,2023_Apr_11_1119,cans_4-2-23,2021.2.3,120.04411668156534,
train2017_coco_4866/000000052638.jpg,3,0,3,0,0,38,38,38,,,,,,,1752.4919693139964,None,/Users/graziano-isaac/Desktop/CANS/v2_Behavioral/data/sub-008_cans_4-2-23_2023_Apr_11_1119_mic_recorded/recording_000000052638_trials_38.default,0.00016501819482073188,None,space,10.098197272003745,1753.3502245239943,None,1753.3502245239943,None,,,,,,,,,sub-008,001,2023_Apr_11_1119,cans_4-2-23,2021.2.3,120.04411668156534,
train2017_coco_4866/000000052751.jpg,3,0,3,0,0,39,39,39,,,,,,,1764.3917023149988,None,/Users/graziano-isaac/Desktop/CANS/v2_Behavioral/data/sub-008_cans_4-2-23_2023_Apr_11_1119_mic_recorded/recording_000000052751_trials_39.default,0.0011398912029108033,None,space,5.462404309990234,1765.2420087780047,None,1765.2420087780047,None,,,,,,,,,sub-008,001,2023_Apr_11_1119,cans_4-2-23,2021.2.3,120.04411668156534,
,3,0,3,0,,,,,,,,,,,,,,,,,,,,,,1771.4837143199984,None,space,3.3087604489992373,1771.4837143199984,None,,,sub-008,001,2023_Apr_11_1119,cans_4-2-23,2021.2.3,120.04411668156534,
train2017_coco_4866/000000052843.jpg,4,0,4,0,0,0,0,0,,,,,,,None,None,/Users/graziano-isaac/Desktop/CANS/v2_Behavioral/data/sub-008_cans_4-2-23_2023_Apr_11_1119_mic_recorded/recording_000000052843_trials_0.default,0.0002671947149792686,None,space,7.373970155997085,1777.858451238004,None,1777.858451238004,None,,,,,,,,,sub-008,001,2023_Apr_11_1119,cans_4-2-23,2021.2.3,120.04411668156534,
train2017_coco_4866/000000052952.jpg,4,0,4,0,0,1,1,1,,,,,,,1786.1755993940023,None,/Users/graziano-isaac/Desktop/CANS/v2_Behavioral/data/sub-008_cans_4-2-23_2023_Apr_11_1119_mic_recorded/recording_000000052952_trials_1.default,0.0027411492774263024,None,space,5.942356124010985,1787.0340447189956,None,1787.0340447189956,None,,,,,,,,,sub-008,001,2023_Apr_11_1119,cans_4-2-23,2021.2.3,120.04411668156534,
train2017_coco_4866/000000053101.jpg,4,0,4,0,0,2,2,2,,,,,,,1793.908203169005,None,/Users/graziano-isaac/Desktop/CANS/v2_Behavioral/data/sub-008_cans_4-2-23_2023_Apr_11_1119_mic_recorded/recording_000000053101_trials_2.default,0.0005820092046633363,None,space,5.376946265998413,1794.767457213995,None,1794.767457213995,None,,,,,,,,,sub-008,001,2023_Apr_11_1119,cans_4-2-23,2021.2.3,120.04411668156534,
train2017_coco_4866/000000053145.jpg,4,0,4,0,0,3,3,3,,,,,,,1801.0839630650007,None,/Users/graziano-isaac/Desktop/CANS/v2_Behavioral/data/sub-008_cans_4-2-23_2023_Apr_11_1119_mic_recorded/recording_000000053145_trials_3.default,0.00092610418505501,None,space,8.305957459990168,1801.934450611996,None,1801.934450611996,None,,,,,,,,,sub-008,001,2023_Apr_11_1119,cans_4-2-23,2021.2.3,120.04411668156534,
train2017_coco_4866/000000053150.jpg,4,0,4,0,0,4,4,4,,,,,,,1811.176219200992,None,/Users/graziano-isaac/Desktop/CANS/v2_Behavioral/data/sub-008_cans_4-2-23_2023_Apr_11_1119_mic_recorded/recording_000000053150_trials_4.default,0.0031116472091525793,None,space,16.197179919996415,1812.0272386619909,None,1812.0272386619909,None,,,,,,,,,sub-008,001,2023_Apr_11_1119,cans_4-2-23,2021.2.3,120.04411668156534,
train2017_coco_4866/000000053169.jpg,4,0,4,0,0,5,5,5,,,,,,,1829.161052077994,None,/Users/graziano-isaac/Desktop/CANS/v2_Behavioral/data/sub-008_cans_4-2-23_2023_Apr_11_1119_mic_recorded/recording_000000053169_trials_5.default,0.006851266298326664,None,space,4.942912001002696,1830.0175055989966,None,1830.0175055989966,None,,,,,,,,,sub-008,001,2023_Apr_11_1119,cans_4-2-23,2021.2.3,120.04411668156534,
train2017_coco_4866/000000053328.jpg,4,0,4,0,0,6,6,6,,,,,,,1835.8922105139936,None,/Users/graziano-isaac/Desktop/CANS/v2_Behavioral/data/sub-008_cans_4-2-23_2023_Apr_11_1119_mic_recorded/recording_000000053328_trials_6.default,0.001987969211768359,None,space,8.169596585008549,1836.7428293199919,None,1836.7428293199919,None,,,,,,,,,sub-008,001,2023_Apr_11_1119,cans_4-2-23,2021.2.3,120.04411668156534,
train2017_coco_4866/000000053490.jpg,4,0,4,0,0,7,7,7,,,,,,,1845.8437107630016,None,/Users/graziano-isaac/Desktop/CANS/v2_Behavioral/data/sub-008_cans_4-2-23_2023_Apr_11_1119_mic_recorded/recording_000000053490_trials_7.default,0.007755444283247925,None,space,4.49834687000839,1846.7100762820046,None,1846.7100762820046,None,,,,,,,,,sub-008,001,2023_Apr_11_1119,cans_4-2-23,2021.2.3,120.04411668156534,
train2017_coco_4866/000000053539.jpg,4,0,4,0,0,8,8,8,,,,,,,1852.1427354869957,None,/Users/graziano-isaac/Desktop/CANS/v2_Behavioral/data/sub-008_cans_4-2-23_2023_Apr_11_1119_mic_recorded/recording_000000053539_trials_8.default,0.0012995972210774198,None,space,3.5590612550004153,1853.0013304979948,None,1853.0013304979948,None,,,,,,,,,sub-008,001,2023_Apr_11_1119,cans_4-2-23,2021.2.3,120.04411668156534,
train2017_coco_4866/000000053546.jpg,4,0,4,0,0,9,9,9,,,,,,,1857.492758081993,None,/Users/graziano-isaac/Desktop/CANS/v2_Behavioral/data/sub-008_cans_4-2-23_2023_Apr_11_1119_mic_recorded/recording_000000053546_trials_9.default,0.000984283207799308,None,space,12.641469837995828,1858.3429540490033,None,1858.3429540490033,None,,,,,,,,,sub-008,001,2023_Apr_11_1119,cans_4-2-23,2021.2.3,120.04411668156534,
train2017_coco_4866/000000053672.jpg,4,0,4,0,0,10,10,10,,,,,,,1871.9177735019912,None,/Users/graziano-isaac/Desktop/CANS/v2_Behavioral/data/sub-008_cans_4-2-23_2023_Apr_11_1119_mic_recorded/recording_000000053672_trials_10.default,0.005533340299734846,None,space,6.551833614998031,1872.7765891419986,None,1872.7765891419986,None,,,,,,,,,sub-008,001,2023_Apr_11_1119,cans_4-2-23,2021.2.3,120.04411668156534,
train2017_coco_4866/000000053748.jpg,4,0,4,0,0,11,11,11,,,,,,,1880.2680912719952,None,/Users/graziano-isaac/Desktop/CANS/v2_Behavioral/data/sub-008_cans_4-2-23_2023_Apr_11_1119_mic_recorded/recording_000000053748_trials_11.default,0.006055325284251012,None,space,8.314229451993015,1881.1261910119938,None,1881.1261910119938,None,,,,,,,,,sub-008,001,2023_Apr_11_1119,cans_4-2-23,2021.2.3,120.04411668156534,
train2017_coco_4866/000000053774.jpg,4,0,4,0,0,12,12,12,,,,,,,1890.3762819099938,None,/Users/graziano-isaac/Desktop/CANS/v2_Behavioral/data/sub-008_cans_4-2-23_2023_Apr_11_1119_mic_recorded/recording_000000053774_trials_12.default,0.0034384661994408816,None,space,4.061437125012162,1891.234984166993,None,1891.234984166993,None,,,,,,,,,sub-008,001,2023_Apr_11_1119,cans_4-2-23,2021.2.3,120.04411668156534,
train2017_coco_4866/000000053977.jpg,4,0,4,0,0,13,13,13,,,,,,,1896.235519829992,None,/Users/graziano-isaac/Desktop/CANS/v2_Behavioral/data/sub-008_cans_4-2-23_2023_Apr_11_1119_mic_recorded/recording_000000053977_trials_13.default,0.006970457194256596,None,space,12.163599898995017,1897.0768099269917,None,1897.0768099269917,None,,,,,,,,,sub-008,001,2023_Apr_11_1119,cans_4-2-23,2021.2.3,120.04411668156534,
train2017_coco_4866/000000054020.jpg,4,0,4,0,0,14,14,14,,,,,,,1910.1852742810006,None,/Users/graziano-isaac/Desktop/CANS/v2_Behavioral/data/sub-008_cans_4-2-23_2023_Apr_11_1119_mic_recorded/recording_000000054020_trials_14.default,0.00799359728989657,None,space,14.956943212993792,1911.0434855810017,None,1911.0434855810017,None,,,,,,,,,sub-008,001,2023_Apr_11_1119,cans_4-2-23,2021.2.3,120.04411668156534,
train2017_coco_4866/000000054111.jpg,4,0,4,0,0,15,15,15,,,,,,,1926.943945097999,None,/Users/graziano-isaac/Desktop/CANS/v2_Behavioral/data/sub-008_cans_4-2-23_2023_Apr_11_1119_mic_recorded/recording_000000054111_trials_15.default,0.0063618182903155684,None,space,10.734993382997345,1927.801427842991,None,1927.801427842991,None,,,,,,,,,sub-008,001,2023_Apr_11_1119,cans_4-2-23,2021.2.3,120.04411668156534,
train2017_coco_4866/000000054118.jpg,4,0,4,0,0,16,16,16,,,,,,,1939.469109728001,None,/Users/graziano-isaac/Desktop/CANS/v2_Behavioral/data/sub-008_cans_4-2-23_2023_Apr_11_1119_mic_recorded/recording_000000054118_trials_16.default,0.008307005307869986,None,space,5.073533538990887,1940.3268962360016,None,1940.3268962360016,None,,,,,,,,,sub-008,001,2023_Apr_11_1119,cans_4-2-23,2021.2.3,120.04411668156534,
train2017_coco_4866/000000054351.jpg,4,0,4,0,0,17,17,17,,,,,,,1946.3276215609949,None,/Users/graziano-isaac/Desktop/CANS/v2_Behavioral/data/sub-008_cans_4-2-23_2023_Apr_11_1119_mic_recorded/recording_000000054351_trials_17.default,0.007215429286588915,None,space,5.58251773500524,1947.1859185270005,None,1947.1859185270005,None,,,,,,,,,sub-008,001,2023_Apr_11_1119,cans_4-2-23,2021.2.3,120.04411668156534,
train2017_coco_4866/000000055126.jpg,4,0,4,0,0,18,18,18,,,,,,,1953.7026203050045,None,/Users/graziano-isaac/Desktop/CANS/v2_Behavioral/data/sub-008_cans_4-2-23_2023_Apr_11_1119_mic_recorded/recording_000000055126_trials_18.default,0.005992926307953894,None,space,12.368266795994714,1954.5521608489944,None,1954.5521608489944,None,,,,,,,,,sub-008,001,2023_Apr_11_1119,cans_4-2-23,2021.2.3,120.04411668156534,
train2017_coco_4866/000000055594.jpg,4,0,4,0,0,19,19,19,,,,,,,1967.8605551139917,None,/Users/graziano-isaac/Desktop/CANS/v2_Behavioral/data/sub-008_cans_4-2-23_2023_Apr_11_1119_mic_recorded/recording_000000055594_trials_19.default,0.003104720191913657,None,space,8.103851228996064,1968.712587571994,None,1968.712587571994,None,,,,,,,,,sub-008,001,2023_Apr_11_1119,cans_4-2-23,2021.2.3,120.04411668156534,
train2017_coco_4866/000000055651.jpg,4,0,4,0,0,20,20,20,,,,,,,1977.7533576889982,None,/Users/graziano-isaac/Desktop/CANS/v2_Behavioral/data/sub-008_cans_4-2-23_2023_Apr_11_1119_mic_recorded/recording_000000055651_trials_20.default,0.0012365762086119503,None,space,8.333151838000049,1978.6112790899933,None,1978.6112790899933,None,,,,,,,,,sub-008,001,2023_Apr_11_1119,cans_4-2-23,2021.2.3,120.04411668156534,
train2017_coco_4866/000000055681.jpg,4,0,4,0,0,21,21,21,,,,,,,1987.8858930889983,None,/Users/graziano-isaac/Desktop/CANS/v2_Behavioral/data/sub-008_cans_4-2-23_2023_Apr_11_1119_mic_recorded/recording_000000055681_trials_21.default,0.002365211199503392,None,space,7.208592998998938,1988.7358598599967,None,1988.7358598599967,None,,,,,,,,,sub-008,001,2023_Apr_11_1119,cans_4-2-23,2021.2.3,120.04411668156534,
train2017_coco_4866/000000055733.jpg,4,0,4,0,0,22,22,22,,,,,,,1996.8712102349964,None,/Users/graziano-isaac/Desktop/CANS/v2_Behavioral/data/sub-008_cans_4-2-23_2023_Apr_11_1119_mic_recorded/recording_000000055733_trials_22.default,0.0014212542009772733,None,space,9.752823023998644,1997.7276186289964,None,1997.7276186289964,None,,,,,,,,,sub-008,001,2023_Apr_11_1119,cans_4-2-23,2021.2.3,120.04411668156534,
train2017_coco_4866/000000055809.jpg,4,0,4,0,0,23,23,23,,,,,,,2008.4191239380016,None,/Users/graziano-isaac/Desktop/CANS/v2_Behavioral/data/sub-008_cans_4-2-23_2023_Apr_11_1119_mic_recorded/recording_000000055809_trials_23.default,0.007614013287820853,None,space,5.034298915008549,2009.278137182002,None,2009.278137182002,None,,,,,,,,,sub-008,001,2023_Apr_11_1119,cans_4-2-23,2021.2.3,120.04411668156534,
train2017_coco_4866/000000056187.jpg,4,0,4,0,0,24,24,24,,,,,,,2015.2448639579961,None,/Users/graziano-isaac/Desktop/CANS/v2_Behavioral/data/sub-008_cans_4-2-23_2023_Apr_11_1119_mic_recorded/recording_000000056187_trials_24.default,0.008209289284422994,None,space,5.001281208009459,2016.1031547689927,None,2016.1031547689927,None,,,,,,,,,sub-008,001,2023_Apr_11_1119,cans_4-2-23,2021.2.3,120.04411668156534,
train2017_coco_4866/000000056206.jpg,4,0,4,0,0,25,25,25,,,,,,,2022.0359519600024,None,/Users/graziano-isaac/Desktop/CANS/v2_Behavioral/data/sub-008_cans_4-2-23_2023_Apr_11_1119_mic_recorded/recording_000000056206_trials_25.default,0.003253506205510348,None,space,10.178156491005211,2022.8862846419943,None,2022.8862846419943,None,,,,,,,,,sub-008,001,2023_Apr_11_1119,cans_4-2-23,2021.2.3,120.04411668156534,
train2017_coco_4866/000000056604.jpg,4,0,4,0,0,26,26,26,,,,,,,2034.012043647992,None,/Users/graziano-isaac/Desktop/CANS/v2_Behavioral/data/sub-008_cans_4-2-23_2023_Apr_11_1119_mic_recorded/recording_000000056604_trials_26.default,0.0004043142980663106,None,space,6.203074863995425,2034.869377680996,None,2034.869377680996,None,,,,,,,,,sub-008,001,2023_Apr_11_1119,cans_4-2-23,2021.2.3,120.04411668156534,
train2017_coco_4866/000000056715.jpg,4,0,4,0,0,27,27,27,,,,,,,2042.0121344469953,None,/Users/graziano-isaac/Desktop/CANS/v2_Behavioral/data/sub-008_cans_4-2-23_2023_Apr_11_1119_mic_recorded/recording_000000056715_trials_27.default,0.00016823320765979588,None,space,6.010993547999533,2042.8694565390033,None,2042.8694565390033,None,,,,,,,,,sub-008,001,2023_Apr_11_1119,cans_4-2-23,2021.2.3,120.04411668156534,
train2017_coco_4866/000000057361.jpg,4,0,4,0,0,28,28,28,,,,,,,2049.819479134996,None,/Users/graziano-isaac/Desktop/CANS/v2_Behavioral/data/sub-008_cans_4-2-23_2023_Apr_11_1119_mic_recorded/recording_000000057361_trials_28.default,0.0004665582091547549,None,space,11.56222020999121,2050.6702122999995,None,2050.6702122999995,None,,,,,,,,,sub-008,001,2023_Apr_11_1119,cans_4-2-23,2021.2.3,120.04411668156534,
train2017_coco_4866/000000057363.jpg,4,0,4,0,0,29,29,29,,,,,,,2063.178293525998,None,/Users/graziano-isaac/Desktop/CANS/v2_Behavioral/data/sub-008_cans_4-2-23_2023_Apr_11_1119_mic_recorded/recording_000000057363_trials_29.default,0.006602194276638329,None,space,9.068121910007903,2064.0283299110015,None,2064.0283299110015,None,,,,,,,,,sub-008,001,2023_Apr_11_1119,cans_4-2-23,2021.2.3,120.04411668156534,
train2017_coco_4866/000000057645.jpg,4,0,4,0,0,30,30,30,,,,,,,2074.0371719849936,None,/Users/graziano-isaac/Desktop/CANS/v2_Behavioral/data/sub-008_cans_4-2-23_2023_Apr_11_1119_mic_recorded/recording_000000057645_trials_30.default,0.005429151220596395,None,space,10.265700039992225,2074.886750559992,None,2074.886750559992,None,,,,,,,,,sub-008,001,2023_Apr_11_1119,cans_4-2-23,2021.2.3,120.04411668156534,
train2017_coco_4866/000000057753.jpg,4,0,4,0,0,31,31,31,,,,,,,2086.0951872000005,None,/Users/graziano-isaac/Desktop/CANS/v2_Behavioral/data/sub-008_cans_4-2-23_2023_Apr_11_1119_mic_recorded/recording_000000057753_trials_31.default,0.00807931627787184,None,space,11.183313764006016,2086.945142444005,None,2086.945142444005,None,,,,,,,,,sub-008,001,2023_Apr_11_1119,cans_4-2-23,2021.2.3,120.04411668156534,
train2017_coco_4866/000000058035.jpg,4,0,4,0,0,32,32,32,,,,,,,2099.064030377005,None,/Users/graziano-isaac/Desktop/CANS/v2_Behavioral/data/sub-008_cans_4-2-23_2023_Apr_11_1119_mic_recorded/recording_000000058035_trials_32.default,0.005590374188614078,None,space,5.1122466800006805,2099.912201703002,None,2099.912201703002,None,,,,,,,,,sub-008,001,2023_Apr_11_1119,cans_4-2-23,2021.2.3,120.04411668156534,
train2017_coco_4866/000000058141.jpg,4,0,4,0,0,33,33,33,,,,,,,2105.962045391003,None,/Users/graziano-isaac/Desktop/CANS/v2_Behavioral/data/sub-008_cans_4-2-23_2023_Apr_11_1119_mic_recorded/recording_000000058141_trials_33.default,0.00356400829332415,None,space,7.915810795006109,2106.820641721002,None,2106.820641721002,None,,,,,,,,,sub-008,001,2023_Apr_11_1119,cans_4-2-23,2021.2.3,120.04411668156534,
train2017_coco_4866/000000058179.jpg,4,0,4,0,0,34,34,34,,,,,,,2115.6710583370004,None,/Users/graziano-isaac/Desktop/CANS/v2_Behavioral/data/sub-008_cans_4-2-23_2023_Apr_11_1119_mic_recorded/recording_000000058179_trials_34.default,0.006331657219561748,None,space,5.176179443005822,2116.520269929999,None,2116.520269929999,None,,,,,,,,,sub-008,001,2023_Apr_11_1119,cans_4-2-23,2021.2.3,120.04411668156534,
train2017_coco_4866/000000058242.jpg,4,0,4,0,0,35,35,35,,,,,,,2122.630647831,None,/Users/graziano-isaac/Desktop/CANS/v2_Behavioral/data/sub-008_cans_4-2-23_2023_Apr_11_1119_mic_recorded/recording_000000058242_trials_35.default,0.006622750399401411,None,space,4.0805802660033805,2123.4958846139925,None,2123.4958846139925,None,,,,,,,,,sub-008,001,2023_Apr_11_1119,cans_4-2-23,2021.2.3,120.04411668156534,
train2017_coco_4866/000000058351.jpg,4,0,4,0,0,36,36,36,,,,,,,2128.5128358910006,None,/Users/graziano-isaac/Desktop/CANS/v2_Behavioral/data/sub-008_cans_4-2-23_2023_Apr_11_1119_mic_recorded/recording_000000058351_trials_36.default,0.00020161819702479988,None,space,6.342066701996373,2129.3703927619936,None,2129.3703927619936,None,,,,,,,,,sub-008,001,2023_Apr_11_1119,cans_4-2-23,2021.2.3,120.04411668156534,
train2017_coco_4866/000000058624.jpg,4,0,4,0,0,37,37,37,,,,,,,2136.6459121880034,None,/Users/graziano-isaac/Desktop/CANS/v2_Behavioral/data/sub-008_cans_4-2-23_2023_Apr_11_1119_mic_recorded/recording_000000058624_trials_37.default,0.0005446102150017396,None,space,11.615854889998445,2137.5045952049986,None,2137.5045952049986,None,,,,,,,,,sub-008,001,2023_Apr_11_1119,cans_4-2-23,2021.2.3,120.04411668156534,
train2017_coco_4866/000000058741.jpg,4,0,4,0,0,38,38,38,,,,,,,2150.055506195,None,/Users/graziano-isaac/Desktop/CANS/v2_Behavioral/data/sub-008_cans_4-2-23_2023_Apr_11_1119_mic_recorded/recording_000000058741_trials_38.default,8.401021477766335e-05,None,space,11.143251715999213,2150.913202790005,None,2150.913202790005,None,,,,,,,,,sub-008,001,2023_Apr_11_1119,cans_4-2-23,2021.2.3,120.04411668156534,
train2017_coco_4866/000000122001.jpg,4,0,4,0,0,39,39,39,,,,,,,2162.996341794991,None,/Users/graziano-isaac/Desktop/CANS/v2_Behavioral/data/sub-008_cans_4-2-23_2023_Apr_11_1119_mic_recorded/recording_000000122001_trials_39.default,0.004828188204555772,None,space,9.017543886002386,2163.8469164220005,None,2163.8469164220005,None,,,,,,,,,sub-008,001,2023_Apr_11_1119,cans_4-2-23,2021.2.3,120.04411668156534,
,4,0,4,0,,,,,,,,,,,,,,,,,,,,,,2173.647243835003,None,space,6.013706636003917,2173.647243835003,None,,,sub-008,001,2023_Apr_11_1119,cans_4-2-23,2021.2.3,120.04411668156534,
,,,,,,,,,,,,,,,,,,,,,,,,,,,,,,,,2179.6730046309967,None,,,,,,,
